Order,Word,Translation,corrAnsEspV,practiceListB,practiceListB0,practiceListB1,practiceListB2,practiceListB3,practiceListB4,practiceListB5,practiceListB6,practiceListB7,conditionB,stimuliListB0,stimuliListB1,stimuliListB2,stimuliListB3,stimuliListB4,stimuliListB5,stimuliListB6,stimuliListB7,stimuliListB8,stimuliListB9,stimuliListB10,stimuliListB11,stimuliListB12,stimuliListB13,stimuliListB14,stimuliListB15,stimuliListB16,stimuliListB17,stimuliListB18,stimuliListB19,stimuliListB20,stimuliListB21,stimuliListB22,stimuliListB23,stimuliListB24,stimuliListB25,stimuliListB26,stimuliListB27,stimuliListB28,stimuliListB29,stimuliListB30,stimuliListB31,stimuliListB32,stimuliListB33,stimuliListB34,stimuliListB35,stimuliListB36,stimuliListB37,stimuliListB38,stimuliListB39,stimuliListB40,stimuliListB41,stimuliListB42,stimuliListB43,stimuliListB44,stimuliListB45,stimuliListB46,stimuliListB47,syllabification,corrSyl,corrAns,keyCVC,keyCV,corrAnsEngV,questionNum,color,sectionEng,questionTextEng,languageEng,sectionEsp,questionTextEsp,languageEsp,lexEspLoop.thisRepN,lexEspLoop.thisTrialN,lexEspLoop.thisN,lexEspLoop.thisIndex,pracTarLoop.thisRepN,pracTarLoop.thisTrialN,pracTarLoop.thisN,pracTarLoop.thisIndex,pracTrialLoop.thisRepN,pracTrialLoop.thisTrialN,pracTrialLoop.thisN,pracTrialLoop.thisIndex,expTarLoop.thisRepN,expTarLoop.thisTrialN,expTarLoop.thisN,expTarLoop.thisIndex,expTrialLoop.thisRepN,expTrialLoop.thisTrialN,expTrialLoop.thisN,expTrialLoop.thisIndex,sylPracLoop.thisRepN,sylPracLoop.thisTrialN,sylPracLoop.thisN,sylPracLoop.thisIndex,syllableLoop.thisRepN,syllableLoop.thisTrialN,syllableLoop.thisN,syllableLoop.thisIndex,lexEngLoop.thisRepN,lexEngLoop.thisTrialN,lexEngLoop.thisN,lexEngLoop.thisIndex,trials_blp_hist.thisRepN,trials_blp_hist.thisTrialN,trials_blp_hist.thisN,trials_blp_hist.thisIndex,trials_blp_use.thisRepN,trials_blp_use.thisTrialN,trials_blp_use.thisN,trials_blp_use.thisIndex,trials_blp_prof.thisRepN,trials_blp_prof.thisTrialN,trials_blp_prof.thisN,trials_blp_prof.thisIndex,trials_blp_att.thisRepN,trials_blp_att.thisTrialN,trials_blp_att.thisN,trials_blp_att.thisIndex,lexEsp_key_resp.keys,lexEsp_key_resp.corr,lexEsp_key_resp.rt,seg_key_resp.keys,seg_key_resp.rt,expSyl_key_resp.keys,expSyl_key_resp.corr,expSyl_key_resp.rt,lexEng_key_resp.keys,lexEng_key_resp.corr,lexEng_key_resp.rt,rating_lang_hist.response,rating_lang_hist.rt,rating_use_eng.response,rating_lang_prof.response,rating_lang_prof.rt,rating_lang_att.response,rating_lang_att.rt,01_Participante (Participant):,02_Sesión (Session):,03_Nombre (First name):,04_Apellido (Last name):,05_Edad (Age):,06_Sexo (Gender):,07_País de nacimiento (Birth country):,08_Lugar de residencia (Place of residence):,09_Nivel más alto de formación académica (Highest level of formal education):,10_Idioma preferido (Preferred language):,date,expName,psychopyVersion,frameRate,
0,pladeno,NW,0,,,,,,,,,,,,,,,,,,,,,,,,,,,,,,,,,,,,,,,,,,,,,,,,,,,,,,,,,,,,,,,,,,,,,,,,,0,0,0,0,,,,,,,,,,,,,,,,,,,,,,,,,,,,,,,,,,,,,,,,,,,,,1,0,12.87608158600051,,,,,,,,,,,,,,,,part001,B,John,Smith,39,Hombre,México,Tucson,"Universidad (diplomatura, licenciatura)",español,2019_Apr_15_1426,Segmentation,3.0.5,60.140482152515936,
0,delantera,first position,1,,,,,,,,,,,,,,,,,,,,,,,,,,,,,,,,,,,,,,,,,,,,,,,,,,,,,,,,,,,,,,,,,,,,,,,,,0,1,1,1,,,,,,,,,,,,,,,,,,,,,,,,,,,,,,,,,,,,,,,,,,,,,1,1,1.3339485160031472,,,,,,,,,,,,,,,,part001,B,John,Smith,39,Hombre,México,Tucson,"Universidad (diplomatura, licenciatura)",español,2019_Apr_15_1426,Segmentation,3.0.5,60.140482152515936,
0,garbardina,raincoat,1,,,,,,,,,,,,,,,,,,,,,,,,,,,,,,,,,,,,,,,,,,,,,,,,,,,,,,,,,,,,,,,,,,,,,,,,,0,2,2,2,,,,,,,,,,,,,,,,,,,,,,,,,,,,,,,,,,,,,,,,,,,,,4,0,7.235799215999577,,,,,,,,,,,,,,,,part001,B,John,Smith,39,Hombre,México,Tucson,"Universidad (diplomatura, licenciatura)",español,2019_Apr_15_1426,Segmentation,3.0.5,60.140482152515936,
1,terzo,NW,0,,,,,,,,,,,,,,,,,,,,,,,,,,,,,,,,,,,,,,,,,,,,,,,,,,,,,,,,,,,,,,,,,,,,,,,,,0,3,3,3,,,,,,,,,,,,,,,,,,,,,,,,,,,,,,,,,,,,,,,,,,,,,1,0,5.323679287001141,,,,,,,,,,,,,,,,part001,B,John,Smith,39,Hombre,México,Tucson,"Universidad (diplomatura, licenciatura)",español,2019_Apr_15_1426,Segmentation,3.0.5,60.140482152515936,
2,pellizcar,pinch,1,,,,,,,,,,,,,,,,,,,,,,,,,,,,,,,,,,,,,,,,,,,,,,,,,,,,,,,,,,,,,,,,,,,,,,,,,0,4,4,4,,,,,,,,,,,,,,,,,,,,,,,,,,,,,,,,,,,,,,,,,,,,,4,0,1.0169683729982353,,,,,,,,,,,,,,,,part001,B,John,Smith,39,Hombre,México,Tucson,"Universidad (diplomatura, licenciatura)",español,2019_Apr_15_1426,Segmentation,3.0.5,60.140482152515936,
3,pulmones,lungs,1,,,,,,,,,,,,,,,,,,,,,,,,,,,,,,,,,,,,,,,,,,,,,,,,,,,,,,,,,,,,,,,,,,,,,,,,,0,5,5,5,,,,,,,,,,,,,,,,,,,,,,,,,,,,,,,,,,,,,,,,,,,,,4,0,0.3186628709991055,,,,,,,,,,,,,,,,part001,B,John,Smith,39,Hombre,México,Tucson,"Universidad (diplomatura, licenciatura)",español,2019_Apr_15_1426,Segmentation,3.0.5,60.140482152515936,
4,batillón,NW,0,,,,,,,,,,,,,,,,,,,,,,,,,,,,,,,,,,,,,,,,,,,,,,,,,,,,,,,,,,,,,,,,,,,,,,,,,0,6,6,6,,,,,,,,,,,,,,,,,,,,,,,,,,,,,,,,,,,,,,,,,,,,,4,0,0.3362649099981354,,,,,,,,,,,,,,,,part001,B,John,Smith,39,Hombre,México,Tucson,"Universidad (diplomatura, licenciatura)",español,2019_Apr_15_1426,Segmentation,3.0.5,60.140482152515936,
5,zapato,shoe,1,,,,,,,,,,,,,,,,,,,,,,,,,,,,,,,,,,,,,,,,,,,,,,,,,,,,,,,,,,,,,,,,,,,,,,,,,0,7,7,7,,,,,,,,,,,,,,,,,,,,,,,,,,,,,,,,,,,,,,,,,,,,,4,0,0.24927388500145753,,,,,,,,,,,,,,,,part001,B,John,Smith,39,Hombre,México,Tucson,"Universidad (diplomatura, licenciatura)",español,2019_Apr_15_1426,Segmentation,3.0.5,60.140482152515936,
6,tergiversar,distort,1,,,,,,,,,,,,,,,,,,,,,,,,,,,,,,,,,,,,,,,,,,,,,,,,,,,,,,,,,,,,,,,,,,,,,,,,,0,8,8,8,,,,,,,,,,,,,,,,,,,,,,,,,,,,,,,,,,,,,,,,,,,,,4,0,0.5348928330022318,,,,,,,,,,,,,,,,part001,B,John,Smith,39,Hombre,México,Tucson,"Universidad (diplomatura, licenciatura)",español,2019_Apr_15_1426,Segmentation,3.0.5,60.140482152515936,
7,pésimo,abysmal,1,,,,,,,,,,,,,,,,,,,,,,,,,,,,,,,,,,,,,,,,,,,,,,,,,,,,,,,,,,,,,,,,,,,,,,,,,0,9,9,9,,,,,,,,,,,,,,,,,,,,,,,,,,,,,,,,,,,,,,,,,,,,,4,0,0.3690078200015705,,,,,,,,,,,,,,,,part001,B,John,Smith,39,Hombre,México,Tucson,"Universidad (diplomatura, licenciatura)",español,2019_Apr_15_1426,Segmentation,3.0.5,60.140482152515936,
8,cadeña,NW,0,,,,,,,,,,,,,,,,,,,,,,,,,,,,,,,,,,,,,,,,,,,,,,,,,,,,,,,,,,,,,,,,,,,,,,,,,0,10,10,10,,,,,,,,,,,,,,,,,,,,,,,,,,,,,,,,,,,,,,,,,,,,,4,0,0.4516368299991882,,,,,,,,,,,,,,,,part001,B,John,Smith,39,Hombre,México,Tucson,"Universidad (diplomatura, licenciatura)",español,2019_Apr_15_1426,Segmentation,3.0.5,60.140482152515936,
9,hacha,axe,1,,,,,,,,,,,,,,,,,,,,,,,,,,,,,,,,,,,,,,,,,,,,,,,,,,,,,,,,,,,,,,,,,,,,,,,,,0,11,11,11,,,,,,,,,,,,,,,,,,,,,,,,,,,,,,,,,,,,,,,,,,,,,4,0,0.31617934700261685,,,,,,,,,,,,,,,,part001,B,John,Smith,39,Hombre,México,Tucson,"Universidad (diplomatura, licenciatura)",español,2019_Apr_15_1426,Segmentation,3.0.5,60.140482152515936,
10,antar,NW,0,,,,,,,,,,,,,,,,,,,,,,,,,,,,,,,,,,,,,,,,,,,,,,,,,,,,,,,,,,,,,,,,,,,,,,,,,0,12,12,12,,,,,,,,,,,,,,,,,,,,,,,,,,,,,,,,,,,,,,,,,,,,,4,0,0.32013258499864605,,,,,,,,,,,,,,,,part001,B,John,Smith,39,Hombre,México,Tucson,"Universidad (diplomatura, licenciatura)",español,2019_Apr_15_1426,Segmentation,3.0.5,60.140482152515936,
11,cenefa,edging,1,,,,,,,,,,,,,,,,,,,,,,,,,,,,,,,,,,,,,,,,,,,,,,,,,,,,,,,,,,,,,,,,,,,,,,,,,0,13,13,13,,,,,,,,,,,,,,,,,,,,,,,,,,,,,,,,,,,,,,,,,,,,,4,0,0.34912439099935,,,,,,,,,,,,,,,,part001,B,John,Smith,39,Hombre,México,Tucson,"Universidad (diplomatura, licenciatura)",español,2019_Apr_15_1426,Segmentation,3.0.5,60.140482152515936,
12,asesinato,murder,1,,,,,,,,,,,,,,,,,,,,,,,,,,,,,,,,,,,,,,,,,,,,,,,,,,,,,,,,,,,,,,,,,,,,,,,,,0,14,14,14,,,,,,,,,,,,,,,,,,,,,,,,,,,,,,,,,,,,,,,,,,,,,4,0,0.35125828699892736,,,,,,,,,,,,,,,,part001,B,John,Smith,39,Hombre,México,Tucson,"Universidad (diplomatura, licenciatura)",español,2019_Apr_15_1426,Segmentation,3.0.5,60.140482152515936,
13,helar,freeze,1,,,,,,,,,,,,,,,,,,,,,,,,,,,,,,,,,,,,,,,,,,,,,,,,,,,,,,,,,,,,,,,,,,,,,,,,,0,15,15,15,,,,,,,,,,,,,,,,,,,,,,,,,,,,,,,,,,,,,,,,,,,,,1,1,0.30369301000246196,,,,,,,,,,,,,,,,part001,B,John,Smith,39,Hombre,México,Tucson,"Universidad (diplomatura, licenciatura)",español,2019_Apr_15_1426,Segmentation,3.0.5,60.140482152515936,
14,yunque,anvil,1,,,,,,,,,,,,,,,,,,,,,,,,,,,,,,,,,,,,,,,,,,,,,,,,,,,,,,,,,,,,,,,,,,,,,,,,,0,16,16,16,,,,,,,,,,,,,,,,,,,,,,,,,,,,,,,,,,,,,,,,,,,,,1,1,0.33658532700064825,,,,,,,,,,,,,,,,part001,B,John,Smith,39,Hombre,México,Tucson,"Universidad (diplomatura, licenciatura)",español,2019_Apr_15_1426,Segmentation,3.0.5,60.140482152515936,
15,regar,water,1,,,,,,,,,,,,,,,,,,,,,,,,,,,,,,,,,,,,,,,,,,,,,,,,,,,,,,,,,,,,,,,,,,,,,,,,,0,17,17,17,,,,,,,,,,,,,,,,,,,,,,,,,,,,,,,,,,,,,,,,,,,,,4,0,0.3528505300018878,,,,,,,,,,,,,,,,part001,B,John,Smith,39,Hombre,México,Tucson,"Universidad (diplomatura, licenciatura)",español,2019_Apr_15_1426,Segmentation,3.0.5,60.140482152515936,
16,abracer,NW,0,,,,,,,,,,,,,,,,,,,,,,,,,,,,,,,,,,,,,,,,,,,,,,,,,,,,,,,,,,,,,,,,,,,,,,,,,0,18,18,18,,,,,,,,,,,,,,,,,,,,,,,,,,,,,,,,,,,,,,,,,,,,,1,0,0.3491525069985073,,,,,,,,,,,,,,,,part001,B,John,Smith,39,Hombre,México,Tucson,"Universidad (diplomatura, licenciatura)",español,2019_Apr_15_1426,Segmentation,3.0.5,60.140482152515936,
17,floroso,NW,0,,,,,,,,,,,,,,,,,,,,,,,,,,,,,,,,,,,,,,,,,,,,,,,,,,,,,,,,,,,,,,,,,,,,,,,,,0,19,19,19,,,,,,,,,,,,,,,,,,,,,,,,,,,,,,,,,,,,,,,,,,,,,1,0,0.23564781900131493,,,,,,,,,,,,,,,,part001,B,John,Smith,39,Hombre,México,Tucson,"Universidad (diplomatura, licenciatura)",español,2019_Apr_15_1426,Segmentation,3.0.5,60.140482152515936,
18,arsa,NW,0,,,,,,,,,,,,,,,,,,,,,,,,,,,,,,,,,,,,,,,,,,,,,,,,,,,,,,,,,,,,,,,,,,,,,,,,,0,20,20,20,,,,,,,,,,,,,,,,,,,,,,,,,,,,,,,,,,,,,,,,,,,,,4,0,0.1846766580019903,,,,,,,,,,,,,,,,part001,B,John,Smith,39,Hombre,México,Tucson,"Universidad (diplomatura, licenciatura)",español,2019_Apr_15_1426,Segmentation,3.0.5,60.140482152515936,
19,brecedad,NW,0,,,,,,,,,,,,,,,,,,,,,,,,,,,,,,,,,,,,,,,,,,,,,,,,,,,,,,,,,,,,,,,,,,,,,,,,,0,21,21,21,,,,,,,,,,,,,,,,,,,,,,,,,,,,,,,,,,,,,,,,,,,,,4,0,0.25287102299989783,,,,,,,,,,,,,,,,part001,B,John,Smith,39,Hombre,México,Tucson,"Universidad (diplomatura, licenciatura)",español,2019_Apr_15_1426,Segmentation,3.0.5,60.140482152515936,
20,ávido,avid,1,,,,,,,,,,,,,,,,,,,,,,,,,,,,,,,,,,,,,,,,,,,,,,,,,,,,,,,,,,,,,,,,,,,,,,,,,0,22,22,22,,,,,,,,,,,,,,,,,,,,,,,,,,,,,,,,,,,,,,,,,,,,,1,1,0.2846897630006424,,,,,,,,,,,,,,,,part001,B,John,Smith,39,Hombre,México,Tucson,"Universidad (diplomatura, licenciatura)",español,2019_Apr_15_1426,Segmentation,3.0.5,60.140482152515936,
21,capillo,NW,0,,,,,,,,,,,,,,,,,,,,,,,,,,,,,,,,,,,,,,,,,,,,,,,,,,,,,,,,,,,,,,,,,,,,,,,,,0,23,23,23,,,,,,,,,,,,,,,,,,,,,,,,,,,,,,,,,,,,,,,,,,,,,4,0,0.3198340380004083,,,,,,,,,,,,,,,,part001,B,John,Smith,39,Hombre,México,Tucson,"Universidad (diplomatura, licenciatura)",español,2019_Apr_15_1426,Segmentation,3.0.5,60.140482152515936,
22,lacayo,lackey,1,,,,,,,,,,,,,,,,,,,,,,,,,,,,,,,,,,,,,,,,,,,,,,,,,,,,,,,,,,,,,,,,,,,,,,,,,0,24,24,24,,,,,,,,,,,,,,,,,,,,,,,,,,,,,,,,,,,,,,,,,,,,,4,0,0.25305602699882,,,,,,,,,,,,,,,,part001,B,John,Smith,39,Hombre,México,Tucson,"Universidad (diplomatura, licenciatura)",español,2019_Apr_15_1426,Segmentation,3.0.5,60.140482152515936,
23,lampera,NW,0,,,,,,,,,,,,,,,,,,,,,,,,,,,,,,,,,,,,,,,,,,,,,,,,,,,,,,,,,,,,,,,,,,,,,,,,,0,25,25,25,,,,,,,,,,,,,,,,,,,,,,,,,,,,,,,,,,,,,,,,,,,,,4,0,0.1693220939996536,,,,,,,,,,,,,,,,part001,B,John,Smith,39,Hombre,México,Tucson,"Universidad (diplomatura, licenciatura)",español,2019_Apr_15_1426,Segmentation,3.0.5,60.140482152515936,
24,látigo,whip,1,,,,,,,,,,,,,,,,,,,,,,,,,,,,,,,,,,,,,,,,,,,,,,,,,,,,,,,,,,,,,,,,,,,,,,,,,0,26,26,26,,,,,,,,,,,,,,,,,,,,,,,,,,,,,,,,,,,,,,,,,,,,,1,1,0.08653015500021866,,,,,,,,,,,,,,,,part001,B,John,Smith,39,Hombre,México,Tucson,"Universidad (diplomatura, licenciatura)",español,2019_Apr_15_1426,Segmentation,3.0.5,60.140482152515936,
25,bisagra,hinge,1,,,,,,,,,,,,,,,,,,,,,,,,,,,,,,,,,,,,,,,,,,,,,,,,,,,,,,,,,,,,,,,,,,,,,,,,,0,27,27,27,,,,,,,,,,,,,,,,,,,,,,,,,,,,,,,,,,,,,,,,,,,,,1,1,0.2360577609979373,,,,,,,,,,,,,,,,part001,B,John,Smith,39,Hombre,México,Tucson,"Universidad (diplomatura, licenciatura)",español,2019_Apr_15_1426,Segmentation,3.0.5,60.140482152515936,
26,secuestro,kidnapping,1,,,,,,,,,,,,,,,,,,,,,,,,,,,,,,,,,,,,,,,,,,,,,,,,,,,,,,,,,,,,,,,,,,,,,,,,,0,28,28,28,,,,,,,,,,,,,,,,,,,,,,,,,,,,,,,,,,,,,,,,,,,,,4,0,0.2528805570000259,,,,,,,,,,,,,,,,part001,B,John,Smith,39,Hombre,México,Tucson,"Universidad (diplomatura, licenciatura)",español,2019_Apr_15_1426,Segmentation,3.0.5,60.140482152515936,
27,acutación,NW,0,,,,,,,,,,,,,,,,,,,,,,,,,,,,,,,,,,,,,,,,,,,,,,,,,,,,,,,,,,,,,,,,,,,,,,,,,0,29,29,29,,,,,,,,,,,,,,,,,,,,,,,,,,,,,,,,,,,,,,,,,,,,,4,0,0.13646750699990662,,,,,,,,,,,,,,,,part001,B,John,Smith,39,Hombre,México,Tucson,"Universidad (diplomatura, licenciatura)",español,2019_Apr_15_1426,Segmentation,3.0.5,60.140482152515936,
28,merodear,prowl,1,,,,,,,,,,,,,,,,,,,,,,,,,,,,,,,,,,,,,,,,,,,,,,,,,,,,,,,,,,,,,,,,,,,,,,,,,0,30,30,30,,,,,,,,,,,,,,,,,,,,,,,,,,,,,,,,,,,,,,,,,,,,,1,1,0.1695386640021752,,,,,,,,,,,,,,,,part001,B,John,Smith,39,Hombre,México,Tucson,"Universidad (diplomatura, licenciatura)",español,2019_Apr_15_1426,Segmentation,3.0.5,60.140482152515936,
29,decar,NW,0,,,,,,,,,,,,,,,,,,,,,,,,,,,,,,,,,,,,,,,,,,,,,,,,,,,,,,,,,,,,,,,,,,,,,,,,,0,31,31,31,,,,,,,,,,,,,,,,,,,,,,,,,,,,,,,,,,,,,,,,,,,,,1,0,0.3195815040016896,,,,,,,,,,,,,,,,part001,B,John,Smith,39,Hombre,México,Tucson,"Universidad (diplomatura, licenciatura)",español,2019_Apr_15_1426,Segmentation,3.0.5,60.140482152515936,
30,alardio,NW,0,,,,,,,,,,,,,,,,,,,,,,,,,,,,,,,,,,,,,,,,,,,,,,,,,,,,,,,,,,,,,,,,,,,,,,,,,0,32,32,32,,,,,,,,,,,,,,,,,,,,,,,,,,,,,,,,,,,,,,,,,,,,,4,0,0.1858205030002864,,,,,,,,,,,,,,,,part001,B,John,Smith,39,Hombre,México,Tucson,"Universidad (diplomatura, licenciatura)",español,2019_Apr_15_1426,Segmentation,3.0.5,60.140482152515936,
31,pandilla,gang,1,,,,,,,,,,,,,,,,,,,,,,,,,,,,,,,,,,,,,,,,,,,,,,,,,,,,,,,,,,,,,,,,,,,,,,,,,0,33,33,33,,,,,,,,,,,,,,,,,,,,,,,,,,,,,,,,,,,,,,,,,,,,,4,0,0.2011914139984583,,,,,,,,,,,,,,,,part001,B,John,Smith,39,Hombre,México,Tucson,"Universidad (diplomatura, licenciatura)",español,2019_Apr_15_1426,Segmentation,3.0.5,60.140482152515936,
32,fatacidad,NW,0,,,,,,,,,,,,,,,,,,,,,,,,,,,,,,,,,,,,,,,,,,,,,,,,,,,,,,,,,,,,,,,,,,,,,,,,,0,34,34,34,,,,,,,,,,,,,,,,,,,,,,,,,,,,,,,,,,,,,,,,,,,,,1,0,0.16826829799902043,,,,,,,,,,,,,,,,part001,B,John,Smith,39,Hombre,México,Tucson,"Universidad (diplomatura, licenciatura)",español,2019_Apr_15_1426,Segmentation,3.0.5,60.140482152515936,
33,pauca,NW,0,,,,,,,,,,,,,,,,,,,,,,,,,,,,,,,,,,,,,,,,,,,,,,,,,,,,,,,,,,,,,,,,,,,,,,,,,0,35,35,35,,,,,,,,,,,,,,,,,,,,,,,,,,,,,,,,,,,,,,,,,,,,,1,0,0.16976487600186374,,,,,,,,,,,,,,,,part001,B,John,Smith,39,Hombre,México,Tucson,"Universidad (diplomatura, licenciatura)",español,2019_Apr_15_1426,Segmentation,3.0.5,60.140482152515936,
34,aviso,notice,1,,,,,,,,,,,,,,,,,,,,,,,,,,,,,,,,,,,,,,,,,,,,,,,,,,,,,,,,,,,,,,,,,,,,,,,,,0,36,36,36,,,,,,,,,,,,,,,,,,,,,,,,,,,,,,,,,,,,,,,,,,,,,4,0,0.38456302899794537,,,,,,,,,,,,,,,,part001,B,John,Smith,39,Hombre,México,Tucson,"Universidad (diplomatura, licenciatura)",español,2019_Apr_15_1426,Segmentation,3.0.5,60.140482152515936,
35,rompido,NW,0,,,,,,,,,,,,,,,,,,,,,,,,,,,,,,,,,,,,,,,,,,,,,,,,,,,,,,,,,,,,,,,,,,,,,,,,,0,37,37,37,,,,,,,,,,,,,,,,,,,,,,,,,,,,,,,,,,,,,,,,,,,,,4,0,0.2866420329992252,,,,,,,,,,,,,,,,part001,B,John,Smith,39,Hombre,México,Tucson,"Universidad (diplomatura, licenciatura)",español,2019_Apr_15_1426,Segmentation,3.0.5,60.140482152515936,
36,loro,parrot,1,,,,,,,,,,,,,,,,,,,,,,,,,,,,,,,,,,,,,,,,,,,,,,,,,,,,,,,,,,,,,,,,,,,,,,,,,0,38,38,38,,,,,,,,,,,,,,,,,,,,,,,,,,,,,,,,,,,,,,,,,,,,,1,1,0.26957609999954,,,,,,,,,,,,,,,,part001,B,John,Smith,39,Hombre,México,Tucson,"Universidad (diplomatura, licenciatura)",español,2019_Apr_15_1426,Segmentation,3.0.5,60.140482152515936,
37,granuja,rascal,1,,,,,,,,,,,,,,,,,,,,,,,,,,,,,,,,,,,,,,,,,,,,,,,,,,,,,,,,,,,,,,,,,,,,,,,,,0,39,39,39,,,,,,,,,,,,,,,,,,,,,,,,,,,,,,,,,,,,,,,,,,,,,1,1,0.2857669850018283,,,,,,,,,,,,,,,,part001,B,John,Smith,39,Hombre,México,Tucson,"Universidad (diplomatura, licenciatura)",español,2019_Apr_15_1426,Segmentation,3.0.5,60.140482152515936,
38,estornudar,sneeze,1,,,,,,,,,,,,,,,,,,,,,,,,,,,,,,,,,,,,,,,,,,,,,,,,,,,,,,,,,,,,,,,,,,,,,,,,,0,40,40,40,,,,,,,,,,,,,,,,,,,,,,,,,,,,,,,,,,,,,,,,,,,,,4,0,0.3688127409986919,,,,,,,,,,,,,,,,part001,B,John,Smith,39,Hombre,México,Tucson,"Universidad (diplomatura, licenciatura)",español,2019_Apr_15_1426,Segmentation,3.0.5,60.140482152515936,
39,torpe,clumsy,1,,,,,,,,,,,,,,,,,,,,,,,,,,,,,,,,,,,,,,,,,,,,,,,,,,,,,,,,,,,,,,,,,,,,,,,,,0,41,41,41,,,,,,,,,,,,,,,,,,,,,,,,,,,,,,,,,,,,,,,,,,,,,4,0,0.33691572200041264,,,,,,,,,,,,,,,,part001,B,John,Smith,39,Hombre,México,Tucson,"Universidad (diplomatura, licenciatura)",español,2019_Apr_15_1426,Segmentation,3.0.5,60.140482152515936,
40,alfombra,carpet,1,,,,,,,,,,,,,,,,,,,,,,,,,,,,,,,,,,,,,,,,,,,,,,,,,,,,,,,,,,,,,,,,,,,,,,,,,0,42,42,42,,,,,,,,,,,,,,,,,,,,,,,,,,,,,,,,,,,,,,,,,,,,,1,1,0.18553813800099306,,,,,,,,,,,,,,,,part001,B,John,Smith,39,Hombre,México,Tucson,"Universidad (diplomatura, licenciatura)",español,2019_Apr_15_1426,Segmentation,3.0.5,60.140482152515936,
41,rebuscar,rummage,1,,,,,,,,,,,,,,,,,,,,,,,,,,,,,,,,,,,,,,,,,,,,,,,,,,,,,,,,,,,,,,,,,,,,,,,,,0,43,43,43,,,,,,,,,,,,,,,,,,,,,,,,,,,,,,,,,,,,,,,,,,,,,1,1,0.3674595010015764,,,,,,,,,,,,,,,,part001,B,John,Smith,39,Hombre,México,Tucson,"Universidad (diplomatura, licenciatura)",español,2019_Apr_15_1426,Segmentation,3.0.5,60.140482152515936,
42,cadallo,NW,0,,,,,,,,,,,,,,,,,,,,,,,,,,,,,,,,,,,,,,,,,,,,,,,,,,,,,,,,,,,,,,,,,,,,,,,,,0,44,44,44,,,,,,,,,,,,,,,,,,,,,,,,,,,,,,,,,,,,,,,,,,,,,4,0,0.2518086019990733,,,,,,,,,,,,,,,,part001,B,John,Smith,39,Hombre,México,Tucson,"Universidad (diplomatura, licenciatura)",español,2019_Apr_15_1426,Segmentation,3.0.5,60.140482152515936,
43,canela,cinnamon,1,,,,,,,,,,,,,,,,,,,,,,,,,,,,,,,,,,,,,,,,,,,,,,,,,,,,,,,,,,,,,,,,,,,,,,,,,0,45,45,45,,,,,,,,,,,,,,,,,,,,,,,,,,,,,,,,,,,,,,,,,,,,,4,0,0.31933935699998983,,,,,,,,,,,,,,,,part001,B,John,Smith,39,Hombre,México,Tucson,"Universidad (diplomatura, licenciatura)",español,2019_Apr_15_1426,Segmentation,3.0.5,60.140482152515936,
44,cuchara,spoon,1,,,,,,,,,,,,,,,,,,,,,,,,,,,,,,,,,,,,,,,,,,,,,,,,,,,,,,,,,,,,,,,,,,,,,,,,,0,46,46,46,,,,,,,,,,,,,,,,,,,,,,,,,,,,,,,,,,,,,,,,,,,,,1,1,0.24901475299702724,,,,,,,,,,,,,,,,part001,B,John,Smith,39,Hombre,México,Tucson,"Universidad (diplomatura, licenciatura)",español,2019_Apr_15_1426,Segmentation,3.0.5,60.140482152515936,
45,jilguero,goldfinch,1,,,,,,,,,,,,,,,,,,,,,,,,,,,,,,,,,,,,,,,,,,,,,,,,,,,,,,,,,,,,,,,,,,,,,,,,,0,47,47,47,,,,,,,,,,,,,,,,,,,,,,,,,,,,,,,,,,,,,,,,,,,,,1,1,0.35280744500050787,,,,,,,,,,,,,,,,part001,B,John,Smith,39,Hombre,México,Tucson,"Universidad (diplomatura, licenciatura)",español,2019_Apr_15_1426,Segmentation,3.0.5,60.140482152515936,
46,martillo,hammer,1,,,,,,,,,,,,,,,,,,,,,,,,,,,,,,,,,,,,,,,,,,,,,,,,,,,,,,,,,,,,,,,,,,,,,,,,,0,48,48,48,,,,,,,,,,,,,,,,,,,,,,,,,,,,,,,,,,,,,,,,,,,,,4,0,0.2691991070023505,,,,,,,,,,,,,,,,part001,B,John,Smith,39,Hombre,México,Tucson,"Universidad (diplomatura, licenciatura)",español,2019_Apr_15_1426,Segmentation,3.0.5,60.140482152515936,
47,cartinar,NW,0,,,,,,,,,,,,,,,,,,,,,,,,,,,,,,,,,,,,,,,,,,,,,,,,,,,,,,,,,,,,,,,,,,,,,,,,,0,49,49,49,,,,,,,,,,,,,,,,,,,,,,,,,,,,,,,,,,,,,,,,,,,,,4,0,0.31967842200174346,,,,,,,,,,,,,,,,part001,B,John,Smith,39,Hombre,México,Tucson,"Universidad (diplomatura, licenciatura)",español,2019_Apr_15_1426,Segmentation,3.0.5,60.140482152515936,
48,ladrón,thief,1,,,,,,,,,,,,,,,,,,,,,,,,,,,,,,,,,,,,,,,,,,,,,,,,,,,,,,,,,,,,,,,,,,,,,,,,,0,50,50,50,,,,,,,,,,,,,,,,,,,,,,,,,,,,,,,,,,,,,,,,,,,,,1,1,0.718117615000665,,,,,,,,,,,,,,,,part001,B,John,Smith,39,Hombre,México,Tucson,"Universidad (diplomatura, licenciatura)",español,2019_Apr_15_1426,Segmentation,3.0.5,60.140482152515936,
49,ganar,win,1,,,,,,,,,,,,,,,,,,,,,,,,,,,,,,,,,,,,,,,,,,,,,,,,,,,,,,,,,,,,,,,,,,,,,,,,,0,51,51,51,,,,,,,,,,,,,,,,,,,,,,,,,,,,,,,,,,,,,,,,,,,,,1,1,0.26873496800180874,,,,,,,,,,,,,,,,part001,B,John,Smith,39,Hombre,México,Tucson,"Universidad (diplomatura, licenciatura)",español,2019_Apr_15_1426,Segmentation,3.0.5,60.140482152515936,
50,flamida,NW,0,,,,,,,,,,,,,,,,,,,,,,,,,,,,,,,,,,,,,,,,,,,,,,,,,,,,,,,,,,,,,,,,,,,,,,,,,0,52,52,52,,,,,,,,,,,,,,,,,,,,,,,,,,,,,,,,,,,,,,,,,,,,,4,0,0.43574862600144115,,,,,,,,,,,,,,,,part001,B,John,Smith,39,Hombre,México,Tucson,"Universidad (diplomatura, licenciatura)",español,2019_Apr_15_1426,Segmentation,3.0.5,60.140482152515936,
51,candado,padlock,1,,,,,,,,,,,,,,,,,,,,,,,,,,,,,,,,,,,,,,,,,,,,,,,,,,,,,,,,,,,,,,,,,,,,,,,,,0,53,53,53,,,,,,,,,,,,,,,,,,,,,,,,,,,,,,,,,,,,,,,,,,,,,4,0,0.8502378199991654,,,,,,,,,,,,,,,,part001,B,John,Smith,39,Hombre,México,Tucson,"Universidad (diplomatura, licenciatura)",español,2019_Apr_15_1426,Segmentation,3.0.5,60.140482152515936,
52,camisa,shirt,1,,,,,,,,,,,,,,,,,,,,,,,,,,,,,,,,,,,,,,,,,,,,,,,,,,,,,,,,,,,,,,,,,,,,,,,,,0,54,54,54,,,,,,,,,,,,,,,,,,,,,,,,,,,,,,,,,,,,,,,,,,,,,1,1,0.5351906059986504,,,,,,,,,,,,,,,,part001,B,John,Smith,39,Hombre,México,Tucson,"Universidad (diplomatura, licenciatura)",español,2019_Apr_15_1426,Segmentation,3.0.5,60.140482152515936,
53,vegada,NW,0,,,,,,,,,,,,,,,,,,,,,,,,,,,,,,,,,,,,,,,,,,,,,,,,,,,,,,,,,,,,,,,,,,,,,,,,,0,55,55,55,,,,,,,,,,,,,,,,,,,,,,,,,,,,,,,,,,,,,,,,,,,,,1,0,0.5841255539999111,,,,,,,,,,,,,,,,part001,B,John,Smith,39,Hombre,México,Tucson,"Universidad (diplomatura, licenciatura)",español,2019_Apr_15_1426,Segmentation,3.0.5,60.140482152515936,
54,fomentar,promote,1,,,,,,,,,,,,,,,,,,,,,,,,,,,,,,,,,,,,,,,,,,,,,,,,,,,,,,,,,,,,,,,,,,,,,,,,,0,56,56,56,,,,,,,,,,,,,,,,,,,,,,,,,,,,,,,,,,,,,,,,,,,,,4,0,0.3038789739985077,,,,,,,,,,,,,,,,part001,B,John,Smith,39,Hombre,México,Tucson,"Universidad (diplomatura, licenciatura)",español,2019_Apr_15_1426,Segmentation,3.0.5,60.140482152515936,
55,nevar,snow,1,,,,,,,,,,,,,,,,,,,,,,,,,,,,,,,,,,,,,,,,,,,,,,,,,,,,,,,,,,,,,,,,,,,,,,,,,0,57,57,57,,,,,,,,,,,,,,,,,,,,,,,,,,,,,,,,,,,,,,,,,,,,,4,0,0.7014007380021212,,,,,,,,,,,,,,,,part001,B,John,Smith,39,Hombre,México,Tucson,"Universidad (diplomatura, licenciatura)",español,2019_Apr_15_1426,Segmentation,3.0.5,60.140482152515936,
56,musgo,moss,1,,,,,,,,,,,,,,,,,,,,,,,,,,,,,,,,,,,,,,,,,,,,,,,,,,,,,,,,,,,,,,,,,,,,,,,,,0,58,58,58,,,,,,,,,,,,,,,,,,,,,,,,,,,,,,,,,,,,,,,,,,,,,1,1,0.35163651000038953,,,,,,,,,,,,,,,,part001,B,John,Smith,39,Hombre,México,Tucson,"Universidad (diplomatura, licenciatura)",español,2019_Apr_15_1426,Segmentation,3.0.5,60.140482152515936,
57,tacaño,stingy,1,,,,,,,,,,,,,,,,,,,,,,,,,,,,,,,,,,,,,,,,,,,,,,,,,,,,,,,,,,,,,,,,,,,,,,,,,0,59,59,59,,,,,,,,,,,,,,,,,,,,,,,,,,,,,,,,,,,,,,,,,,,,,1,1,0.5178111210007046,,,,,,,,,,,,,,,,part001,B,John,Smith,39,Hombre,México,Tucson,"Universidad (diplomatura, licenciatura)",español,2019_Apr_15_1426,Segmentation,3.0.5,60.140482152515936,
58,plaudir,NW,0,,,,,,,,,,,,,,,,,,,,,,,,,,,,,,,,,,,,,,,,,,,,,,,,,,,,,,,,,,,,,,,,,,,,,,,,,0,60,60,60,,,,,,,,,,,,,,,,,,,,,,,,,,,,,,,,,,,,,,,,,,,,,4,0,0.38418942499993136,,,,,,,,,,,,,,,,part001,B,John,Smith,39,Hombre,México,Tucson,"Universidad (diplomatura, licenciatura)",español,2019_Apr_15_1426,Segmentation,3.0.5,60.140482152515936,
59,besar,kiss,1,,,,,,,,,,,,,,,,,,,,,,,,,,,,,,,,,,,,,,,,,,,,,,,,,,,,,,,,,,,,,,,,,,,,,,,,,0,61,61,61,,,,,,,,,,,,,,,,,,,,,,,,,,,,,,,,,,,,,,,,,,,,,1,1,0.3029013679988566,,,,,,,,,,,,,,,,part001,B,John,Smith,39,Hombre,México,Tucson,"Universidad (diplomatura, licenciatura)",español,2019_Apr_15_1426,Segmentation,3.0.5,60.140482152515936,
60,matar,kill,1,,,,,,,,,,,,,,,,,,,,,,,,,,,,,,,,,,,,,,,,,,,,,,,,,,,,,,,,,,,,,,,,,,,,,,,,,0,62,62,62,,,,,,,,,,,,,,,,,,,,,,,,,,,,,,,,,,,,,,,,,,,,,4,0,0.5854549579999002,,,,,,,,,,,,,,,,part001,B,John,Smith,39,Hombre,México,Tucson,"Universidad (diplomatura, licenciatura)",español,2019_Apr_15_1426,Segmentation,3.0.5,60.140482152515936,
61,seda,silk,1,,,,,,,,,,,,,,,,,,,,,,,,,,,,,,,,,,,,,,,,,,,,,,,,,,,,,,,,,,,,,,,,,,,,,,,,,0,63,63,63,,,,,,,,,,,,,,,,,,,,,,,,,,,,,,,,,,,,,,,,,,,,,1,1,0.5317781189987727,,,,,,,,,,,,,,,,part001,B,John,Smith,39,Hombre,México,Tucson,"Universidad (diplomatura, licenciatura)",español,2019_Apr_15_1426,Segmentation,3.0.5,60.140482152515936,
62,flaco,skinny,1,,,,,,,,,,,,,,,,,,,,,,,,,,,,,,,,,,,,,,,,,,,,,,,,,,,,,,,,,,,,,,,,,,,,,,,,,0,64,64,64,,,,,,,,,,,,,,,,,,,,,,,,,,,,,,,,,,,,,,,,,,,,,4,0,0.4016921459988225,,,,,,,,,,,,,,,,part001,B,John,Smith,39,Hombre,México,Tucson,"Universidad (diplomatura, licenciatura)",español,2019_Apr_15_1426,Segmentation,3.0.5,60.140482152515936,
63,esposante,NW,0,,,,,,,,,,,,,,,,,,,,,,,,,,,,,,,,,,,,,,,,,,,,,,,,,,,,,,,,,,,,,,,,,,,,,,,,,0,65,65,65,,,,,,,,,,,,,,,,,,,,,,,,,,,,,,,,,,,,,,,,,,,,,1,0,0.6184161279998079,,,,,,,,,,,,,,,,part001,B,John,Smith,39,Hombre,México,Tucson,"Universidad (diplomatura, licenciatura)",español,2019_Apr_15_1426,Segmentation,3.0.5,60.140482152515936,
64,orgulloso,proud,1,,,,,,,,,,,,,,,,,,,,,,,,,,,,,,,,,,,,,,,,,,,,,,,,,,,,,,,,,,,,,,,,,,,,,,,,,0,66,66,66,,,,,,,,,,,,,,,,,,,,,,,,,,,,,,,,,,,,,,,,,,,,,1,1,0.5348685339995427,,,,,,,,,,,,,,,,part001,B,John,Smith,39,Hombre,México,Tucson,"Universidad (diplomatura, licenciatura)",español,2019_Apr_15_1426,Segmentation,3.0.5,60.140482152515936,
65,bizcocho,cake,1,,,,,,,,,,,,,,,,,,,,,,,,,,,,,,,,,,,,,,,,,,,,,,,,,,,,,,,,,,,,,,,,,,,,,,,,,0,67,67,67,,,,,,,,,,,,,,,,,,,,,,,,,,,,,,,,,,,,,,,,,,,,,1,1,0.16987653400065028,,,,,,,,,,,,,,,,part001,B,John,Smith,39,Hombre,México,Tucson,"Universidad (diplomatura, licenciatura)",español,2019_Apr_15_1426,Segmentation,3.0.5,60.140482152515936,
66,hacido,NW,0,,,,,,,,,,,,,,,,,,,,,,,,,,,,,,,,,,,,,,,,,,,,,,,,,,,,,,,,,,,,,,,,,,,,,,,,,0,68,68,68,,,,,,,,,,,,,,,,,,,,,,,,,,,,,,,,,,,,,,,,,,,,,4,0,0.4193006140012585,,,,,,,,,,,,,,,,part001,B,John,Smith,39,Hombre,México,Tucson,"Universidad (diplomatura, licenciatura)",español,2019_Apr_15_1426,Segmentation,3.0.5,60.140482152515936,
67,cabello,hair,1,,,,,,,,,,,,,,,,,,,,,,,,,,,,,,,,,,,,,,,,,,,,,,,,,,,,,,,,,,,,,,,,,,,,,,,,,0,69,69,69,,,,,,,,,,,,,,,,,,,,,,,,,,,,,,,,,,,,,,,,,,,,,1,1,0.3361489079979947,,,,,,,,,,,,,,,,part001,B,John,Smith,39,Hombre,México,Tucson,"Universidad (diplomatura, licenciatura)",español,2019_Apr_15_1426,Segmentation,3.0.5,60.140482152515936,
68,alegre,cheerful,1,,,,,,,,,,,,,,,,,,,,,,,,,,,,,,,,,,,,,,,,,,,,,,,,,,,,,,,,,,,,,,,,,,,,,,,,,0,70,70,70,,,,,,,,,,,,,,,,,,,,,,,,,,,,,,,,,,,,,,,,,,,,,4,0,0.286192387000483,,,,,,,,,,,,,,,,part001,B,John,Smith,39,Hombre,México,Tucson,"Universidad (diplomatura, licenciatura)",español,2019_Apr_15_1426,Segmentation,3.0.5,60.140482152515936,
69,engatusar,cajole,1,,,,,,,,,,,,,,,,,,,,,,,,,,,,,,,,,,,,,,,,,,,,,,,,,,,,,,,,,,,,,,,,,,,,,,,,,0,71,71,71,,,,,,,,,,,,,,,,,,,,,,,,,,,,,,,,,,,,,,,,,,,,,1,1,0.302130437001324,,,,,,,,,,,,,,,,part001,B,John,Smith,39,Hombre,México,Tucson,"Universidad (diplomatura, licenciatura)",español,2019_Apr_15_1426,Segmentation,3.0.5,60.140482152515936,
70,temblo,NW,0,,,,,,,,,,,,,,,,,,,,,,,,,,,,,,,,,,,,,,,,,,,,,,,,,,,,,,,,,,,,,,,,,,,,,,,,,0,72,72,72,,,,,,,,,,,,,,,,,,,,,,,,,,,,,,,,,,,,,,,,,,,,,4,0,0.4362601850007195,,,,,,,,,,,,,,,,part001,B,John,Smith,39,Hombre,México,Tucson,"Universidad (diplomatura, licenciatura)",español,2019_Apr_15_1426,Segmentation,3.0.5,60.140482152515936,
71,polvoriento,dusty,1,,,,,,,,,,,,,,,,,,,,,,,,,,,,,,,,,,,,,,,,,,,,,,,,,,,,,,,,,,,,,,,,,,,,,,,,,0,73,73,73,,,,,,,,,,,,,,,,,,,,,,,,,,,,,,,,,,,,,,,,,,,,,1,1,0.7338556089998747,,,,,,,,,,,,,,,,part001,B,John,Smith,39,Hombre,México,Tucson,"Universidad (diplomatura, licenciatura)",español,2019_Apr_15_1426,Segmentation,3.0.5,60.140482152515936,
72,pemición,NW,0,,,,,,,,,,,,,,,,,,,,,,,,,,,,,,,,,,,,,,,,,,,,,,,,,,,,,,,,,,,,,,,,,,,,,,,,,0,74,74,74,,,,,,,,,,,,,,,,,,,,,,,,,,,,,,,,,,,,,,,,,,,,,1,0,0.3519013080003788,,,,,,,,,,,,,,,,part001,B,John,Smith,39,Hombre,México,Tucson,"Universidad (diplomatura, licenciatura)",español,2019_Apr_15_1426,Segmentation,3.0.5,60.140482152515936,
73,hervidor,kettle,1,,,,,,,,,,,,,,,,,,,,,,,,,,,,,,,,,,,,,,,,,,,,,,,,,,,,,,,,,,,,,,,,,,,,,,,,,0,75,75,75,,,,,,,,,,,,,,,,,,,,,,,,,,,,,,,,,,,,,,,,,,,,,4,0,0.25305744399884134,,,,,,,,,,,,,,,,part001,B,John,Smith,39,Hombre,México,Tucson,"Universidad (diplomatura, licenciatura)",español,2019_Apr_15_1426,Segmentation,3.0.5,60.140482152515936,
74,cintro,NW,0,,,,,,,,,,,,,,,,,,,,,,,,,,,,,,,,,,,,,,,,,,,,,,,,,,,,,,,,,,,,,,,,,,,,,,,,,0,76,76,76,,,,,,,,,,,,,,,,,,,,,,,,,,,,,,,,,,,,,,,,,,,,,1,0,0.23527389100127039,,,,,,,,,,,,,,,,part001,B,John,Smith,39,Hombre,México,Tucson,"Universidad (diplomatura, licenciatura)",español,2019_Apr_15_1426,Segmentation,3.0.5,60.140482152515936,
75,yacer,lie,1,,,,,,,,,,,,,,,,,,,,,,,,,,,,,,,,,,,,,,,,,,,,,,,,,,,,,,,,,,,,,,,,,,,,,,,,,0,77,77,77,,,,,,,,,,,,,,,,,,,,,,,,,,,,,,,,,,,,,,,,,,,,,4,0,0.415843793998647,,,,,,,,,,,,,,,,part001,B,John,Smith,39,Hombre,México,Tucson,"Universidad (diplomatura, licenciatura)",español,2019_Apr_15_1426,Segmentation,3.0.5,60.140482152515936,
76,atar,tie,1,,,,,,,,,,,,,,,,,,,,,,,,,,,,,,,,,,,,,,,,,,,,,,,,,,,,,,,,,,,,,,,,,,,,,,,,,0,78,78,78,,,,,,,,,,,,,,,,,,,,,,,,,,,,,,,,,,,,,,,,,,,,,1,1,0.3861173380028049,,,,,,,,,,,,,,,,part001,B,John,Smith,39,Hombre,México,Tucson,"Universidad (diplomatura, licenciatura)",español,2019_Apr_15_1426,Segmentation,3.0.5,60.140482152515936,
77,tiburón,shark,1,,,,,,,,,,,,,,,,,,,,,,,,,,,,,,,,,,,,,,,,,,,,,,,,,,,,,,,,,,,,,,,,,,,,,,,,,0,79,79,79,,,,,,,,,,,,,,,,,,,,,,,,,,,,,,,,,,,,,,,,,,,,,4,0,0.36825575699913315,,,,,,,,,,,,,,,,part001,B,John,Smith,39,Hombre,México,Tucson,"Universidad (diplomatura, licenciatura)",español,2019_Apr_15_1426,Segmentation,3.0.5,60.140482152515936,
78,frondoso,leafy,1,,,,,,,,,,,,,,,,,,,,,,,,,,,,,,,,,,,,,,,,,,,,,,,,,,,,,,,,,,,,,,,,,,,,,,,,,0,80,80,80,,,,,,,,,,,,,,,,,,,,,,,,,,,,,,,,,,,,,,,,,,,,,1,1,0.29937969900129247,,,,,,,,,,,,,,,,part001,B,John,Smith,39,Hombre,México,Tucson,"Universidad (diplomatura, licenciatura)",español,2019_Apr_15_1426,Segmentation,3.0.5,60.140482152515936,
79,tropaje,NW,0,,,,,,,,,,,,,,,,,,,,,,,,,,,,,,,,,,,,,,,,,,,,,,,,,,,,,,,,,,,,,,,,,,,,,,,,,0,81,81,81,,,,,,,,,,,,,,,,,,,,,,,,,,,,,,,,,,,,,,,,,,,,,4,0,0.3025575559986464,,,,,,,,,,,,,,,,part001,B,John,Smith,39,Hombre,México,Tucson,"Universidad (diplomatura, licenciatura)",español,2019_Apr_15_1426,Segmentation,3.0.5,60.140482152515936,
80,hormiga,ant,1,,,,,,,,,,,,,,,,,,,,,,,,,,,,,,,,,,,,,,,,,,,,,,,,,,,,,,,,,,,,,,,,,,,,,,,,,0,82,82,82,,,,,,,,,,,,,,,,,,,,,,,,,,,,,,,,,,,,,,,,,,,,,1,1,0.2852009930029453,,,,,,,,,,,,,,,,part001,B,John,Smith,39,Hombre,México,Tucson,"Universidad (diplomatura, licenciatura)",español,2019_Apr_15_1426,Segmentation,3.0.5,60.140482152515936,
81,pozo,well,1,,,,,,,,,,,,,,,,,,,,,,,,,,,,,,,,,,,,,,,,,,,,,,,,,,,,,,,,,,,,,,,,,,,,,,,,,0,83,83,83,,,,,,,,,,,,,,,,,,,,,,,,,,,,,,,,,,,,,,,,,,,,,4,0,0.36820155999885174,,,,,,,,,,,,,,,,part001,B,John,Smith,39,Hombre,México,Tucson,"Universidad (diplomatura, licenciatura)",español,2019_Apr_15_1426,Segmentation,3.0.5,60.140482152515936,
82,empirador,NW,0,,,,,,,,,,,,,,,,,,,,,,,,,,,,,,,,,,,,,,,,,,,,,,,,,,,,,,,,,,,,,,,,,,,,,,,,,0,84,84,84,,,,,,,,,,,,,,,,,,,,,,,,,,,,,,,,,,,,,,,,,,,,,4,0,0.402684489999956,,,,,,,,,,,,,,,,part001,B,John,Smith,39,Hombre,México,Tucson,"Universidad (diplomatura, licenciatura)",español,2019_Apr_15_1426,Segmentation,3.0.5,60.140482152515936,
83,guante,glove,1,,,,,,,,,,,,,,,,,,,,,,,,,,,,,,,,,,,,,,,,,,,,,,,,,,,,,,,,,,,,,,,,,,,,,,,,,0,85,85,85,,,,,,,,,,,,,,,,,,,,,,,,,,,,,,,,,,,,,,,,,,,,,1,1,0.2516872600026545,,,,,,,,,,,,,,,,part001,B,John,Smith,39,Hombre,México,Tucson,"Universidad (diplomatura, licenciatura)",español,2019_Apr_15_1426,Segmentation,3.0.5,60.140482152515936,
84,escuto,NW,0,,,,,,,,,,,,,,,,,,,,,,,,,,,,,,,,,,,,,,,,,,,,,,,,,,,,,,,,,,,,,,,,,,,,,,,,,0,86,86,86,,,,,,,,,,,,,,,,,,,,,,,,,,,,,,,,,,,,,,,,,,,,,1,0,0.4346411620026629,,,,,,,,,,,,,,,,part001,B,John,Smith,39,Hombre,México,Tucson,"Universidad (diplomatura, licenciatura)",español,2019_Apr_15_1426,Segmentation,3.0.5,60.140482152515936,
85,laud,lute,1,,,,,,,,,,,,,,,,,,,,,,,,,,,,,,,,,,,,,,,,,,,,,,,,,,,,,,,,,,,,,,,,,,,,,,,,,0,87,87,87,,,,,,,,,,,,,,,,,,,,,,,,,,,,,,,,,,,,,,,,,,,,,4,0,0.2663626680005109,,,,,,,,,,,,,,,,part001,B,John,Smith,39,Hombre,México,Tucson,"Universidad (diplomatura, licenciatura)",español,2019_Apr_15_1426,Segmentation,3.0.5,60.140482152515936,
86,barato,cheap,1,,,,,,,,,,,,,,,,,,,,,,,,,,,,,,,,,,,,,,,,,,,,,,,,,,,,,,,,,,,,,,,,,,,,,,,,,0,88,88,88,,,,,,,,,,,,,,,,,,,,,,,,,,,,,,,,,,,,,,,,,,,,,1,1,0.3525169669992465,,,,,,,,,,,,,,,,part001,B,John,Smith,39,Hombre,México,Tucson,"Universidad (diplomatura, licenciatura)",español,2019_Apr_15_1426,Segmentation,3.0.5,60.140482152515936,
87,grodo,NW,0,,,,,,,,,,,,,,,,,,,,,,,,,,,,,,,,,,,,,,,,,,,,,,,,,,,,,,,,,,,,,,,,,,,,,,,,,0,89,89,89,,,,,,,,,,,,,,,,,,,,,,,,,,,,,,,,,,,,,,,,,,,,,4,0,0.35234942700117244,,,,,,,,,,,,,,,,part001,B,John,Smith,39,Hombre,México,Tucson,"Universidad (diplomatura, licenciatura)",español,2019_Apr_15_1426,Segmentation,3.0.5,60.140482152515936,
88,acantilado,cliff,1,,,,,,,,,,,,,,,,,,,,,,,,,,,,,,,,,,,,,,,,,,,,,,,,,,,,,,,,,,,,,,,,,,,,,,,,,0,90,90,90,,,,,,,,,,,,,,,,,,,,,,,,,,,,,,,,,,,,,,,,,,,,,4,0,0.21924714800115908,,,,,,,,,,,,,,,,part001,B,John,Smith,39,Hombre,México,Tucson,"Universidad (diplomatura, licenciatura)",español,2019_Apr_15_1426,Segmentation,3.0.5,60.140482152515936,
89,prisa,hurry,1,,,,,,,,,,,,,,,,,,,,,,,,,,,,,,,,,,,,,,,,,,,,,,,,,,,,,,,,,,,,,,,,,,,,,,,,,0,91,91,91,,,,,,,,,,,,,,,,,,,,,,,,,,,,,,,,,,,,,,,,,,,,,1,1,0.2690840209979797,,,,,,,,,,,,,,,,part001,B,John,Smith,39,Hombre,México,Tucson,"Universidad (diplomatura, licenciatura)",español,2019_Apr_15_1426,Segmentation,3.0.5,60.140482152515936,
90,clavel,carnation,1,,,,,,,,,,,,,,,,,,,,,,,,,,,,,,,,,,,,,,,,,,,,,,,,,,,,,,,,,,,,,,,,,,,,,,,,,0,92,92,92,,,,,,,,,,,,,,,,,,,,,,,,,,,,,,,,,,,,,,,,,,,,,1,1,0.3866410109985736,,,,,,,,,,,,,,,,part001,B,John,Smith,39,Hombre,México,Tucson,"Universidad (diplomatura, licenciatura)",español,2019_Apr_15_1426,Segmentation,3.0.5,60.140482152515936,
,,,,filleritem8,donaire,pureza,devillo,foscillo,cigoto,nocena,galgango,vaquilla,,,,,,,,,,,,,,,,,,,,,,,,,,,,,,,,,,,,,,,,,,,,,,,,,,,,,,,,,,,,,,,,,,,,0,0,0,0,0,0,0,8,,,,,,,,,,,,,,,,,,,,,,,,,,,,,,,,,,,,,,,,,,,,,,,,,,,,,,,part001,B,John,Smith,39,Hombre,México,Tucson,"Universidad (diplomatura, licenciatura)",español,2019_Apr_15_1426,Segmentation,3.0.5,60.140482152515936,
,,,,carrierItem,silbido,cosigna,sildedo,venuro,venado,delbides,coserna,deltoides,,,,,,,,,,,,,,,,,,,,,,,,,,,,,,,,,,,,,,,,,,,,,,,,,,,,,,,,,,,,,,,,,,,,0,0,0,0,0,1,1,0,,,,,,,,,,,,,,,,,,,,,,,,,,,,,,,,,,,,,,,,,,,,,,,,,,,,,,,part001,B,John,Smith,39,Hombre,México,Tucson,"Universidad (diplomatura, licenciatura)",español,2019_Apr_15_1426,Segmentation,3.0.5,60.140482152515936,
,,,,filleritem5,concepto,rabillo,vangurdo,tolina,rasguño,tusvuja,tencrido,forraje,,,,,,,,,,,,,,,,,,,,,,,,,,,,,,,,,,,,,,,,,,,,,,,,,,,,,,,,,,,,,,,,,,,,0,0,0,0,0,2,2,5,,,,,,,,,,,,,,,,,,,,,,,,,,,,,,,,,,,,,,,,,,,,,,,,,,,,,,,part001,B,John,Smith,39,Hombre,México,Tucson,"Universidad (diplomatura, licenciatura)",español,2019_Apr_15_1426,Segmentation,3.0.5,60.140482152515936,
,,,,filleritem7,noviazgo,ternera,tenvila,jagito,pocilga,vinsosta,fensuace,batuta,,,,,,,,,,,,,,,,,,,,,,,,,,,,,,,,,,,,,,,,,,,,,,,,,,,,,,,,,,,,,,,,,,,,0,0,0,0,0,3,3,7,,,,,,,,,,,,,,,,,,,,,,,,,,,,,,,,,,,,,,,,,,,,,,,,,,,,,,,part001,B,John,Smith,39,Hombre,México,Tucson,"Universidad (diplomatura, licenciatura)",español,2019_Apr_15_1426,Segmentation,3.0.5,60.140482152515936,
,,,,filleritem3,congreso,vergüenza,deciro,sutnido,gozada,gaferdo,vavipo,varilla,,,,,,,,,,,,,,,,,,,,,,,,,,,,,,,,,,,,,,,,,,,,,,,,,,,,,,,,,,,,,,,,,,,,0,0,0,0,0,4,4,3,,,,,,,,,,,,,,,,,,,,,,,,,,,,,,,,,,,,,,,,,,,,,,,,,,,,,,,part001,B,John,Smith,39,Hombre,México,Tucson,"Universidad (diplomatura, licenciatura)",español,2019_Apr_15_1426,Segmentation,3.0.5,60.140482152515936,
,,,,filleritem6,reguero,regato,tocida,simona,cizalla,vantema,dezida,ramaje,,,,,,,,,,,,,,,,,,,,,,,,,,,,,,,,,,,,,,,,,,,,,,,,,,,,,,,,,,,,,,,,,,,,0,0,0,0,0,5,5,6,,,,,,,,,,,,,,,,,,,,,,,,,,,,,,,,,,,,,,,,,,,,,,,,,,,,,,,part001,B,John,Smith,39,Hombre,México,Tucson,"Universidad (diplomatura, licenciatura)",español,2019_Apr_15_1426,Segmentation,3.0.5,60.140482152515936,
,,,,filleritem9,recodo,percance,rofiolo,tosaba,cornisa,ricobo,binima,sufragio,,,,,,,,,,,,,,,,,,,,,,,,,,,,,,,,,,,,,,,,,,,,,,,,,,,,,,,,,,,,,,,,,,,,0,0,0,0,0,6,6,9,,,,,,,,,,,,,,,,,,,,,,,,,,,,,,,,,,,,,,,,,,,,,,,,,,,,,,,part001,B,John,Smith,39,Hombre,México,Tucson,"Universidad (diplomatura, licenciatura)",español,2019_Apr_15_1426,Segmentation,3.0.5,60.140482152515936,
,,,,filleritem1,bacteria,farsante,nencida,parvaza,campaña,gimega,navura,burrada,,,,,,,,,,,,,,,,,,,,,,,,,,,,,,,,,,,,,,,,,,,,,,,,,,,,,,,,,,,,,,,,,,,,0,0,0,0,0,7,7,1,,,,,,,,,,,,,,,,,,,,,,,,,,,,,,,,,,,,,,,,,,,,,,,,,,,,,,,part001,B,John,Smith,39,Hombre,México,Tucson,"Universidad (diplomatura, licenciatura)",español,2019_Apr_15_1426,Segmentation,3.0.5,60.140482152515936,
,,,,filleritem2,confianza,rivera,farime,tarsallo,sarcasmo,bascana,purjida,tungsteno,,,,,,,,,,,,,,,,,,,,,,,,,,,,,,,,,,,,,,,,,,,,,,,,,,,,,,,,,,,,,,,,,,,,0,0,0,0,0,8,8,2,,,,,,,,,,,,,,,,,,,,,,,,,,,,,,,,,,,,,,,,,,,,,,,,,,,,,,,part001,B,John,Smith,39,Hombre,México,Tucson,"Universidad (diplomatura, licenciatura)",español,2019_Apr_15_1426,Segmentation,3.0.5,60.140482152515936,
,,,,filleritem4,poniente,largueza,mordiso,cortupto,sordera,rorencio,dabtura,ropero,,,,,,,,,,,,,,,,,,,,,,,,,,,,,,,,,,,,,,,,,,,,,,,,,,,,,,,,,,,,,,,,,,,,0,0,0,0,0,9,9,4,,,,,,,,,,,,,,,,,,,,,,,,,,,,,,,,,,,,,,,,,,,,,,,,,,,,,,,part001,B,John,Smith,39,Hombre,México,Tucson,"Universidad (diplomatura, licenciatura)",español,2019_Apr_15_1426,Segmentation,3.0.5,60.140482152515936,
,,,,targetSyl,si,co,sil,ve,ven,de,cos,del,,,,,,,,,,,,,,,,,,,,,,,,,,,,,,,,,,,,,,,,,,,,,,,,,,,,,,,,,,,,,,,,,,,,0,0,0,0,,,,,,,,,,,,,,,,,,,,,,,,,,,,,,,,,,,,,,,,,,,,,,,,,,,,,,,,,,,part001,B,John,Smith,39,Hombre,México,Tucson,"Universidad (diplomatura, licenciatura)",español,2019_Apr_15_1426,Segmentation,3.0.5,60.140482152515936,
,,,,filleritem7,noviazgo,ternera,tenvila,jagito,pocilga,vinsosta,fensuace,batuta,,,,,,,,,,,,,,,,,,,,,,,,,,,,,,,,,,,,,,,,,,,,,,,,,,,,,,,,,,,,,,,,,,,,1,0,1,0,0,0,0,7,,,,,,,,,,,,,,,,,,,,,,,,,,,,,,,,,,,,,,,,,,,,,,,,,,,,,,,part001,B,John,Smith,39,Hombre,México,Tucson,"Universidad (diplomatura, licenciatura)",español,2019_Apr_15_1426,Segmentation,3.0.5,60.140482152515936,
,,,,filleritem3,congreso,vergüenza,deciro,sutnido,gozada,gaferdo,vavipo,varilla,,,,,,,,,,,,,,,,,,,,,,,,,,,,,,,,,,,,,,,,,,,,,,,,,,,,,,,,,,,,,,,,,,,,1,0,1,0,0,1,1,3,,,,,,,,,,,,,,,,,,,,,,,,,,,,,,,,,,,,,,,,,,,,,,,,,,,,,,,part001,B,John,Smith,39,Hombre,México,Tucson,"Universidad (diplomatura, licenciatura)",español,2019_Apr_15_1426,Segmentation,3.0.5,60.140482152515936,
,,,,filleritem4,poniente,largueza,mordiso,cortupto,sordera,rorencio,dabtura,ropero,,,,,,,,,,,,,,,,,,,,,,,,,,,,,,,,,,,,,,,,,,,,,,,,,,,,,,,,,,,,,,,,,,,,1,0,1,0,0,2,2,4,,,,,,,,,,,,,,,,,,,,,,,,,,,,,,,,,,,,,,,,,,,,,,,,,,,,,,,part001,B,John,Smith,39,Hombre,México,Tucson,"Universidad (diplomatura, licenciatura)",español,2019_Apr_15_1426,Segmentation,3.0.5,60.140482152515936,
,,,,filleritem2,confianza,rivera,farime,tarsallo,sarcasmo,bascana,purjida,tungsteno,,,,,,,,,,,,,,,,,,,,,,,,,,,,,,,,,,,,,,,,,,,,,,,,,,,,,,,,,,,,,,,,,,,,1,0,1,0,0,3,3,2,,,,,,,,,,,,,,,,,,,,,,,,,,,,,,,,,,,,,,,,,,,,,,,,,,,,,,,part001,B,John,Smith,39,Hombre,México,Tucson,"Universidad (diplomatura, licenciatura)",español,2019_Apr_15_1426,Segmentation,3.0.5,60.140482152515936,
,,,,filleritem5,concepto,rabillo,vangurdo,tolina,rasguño,tusvuja,tencrido,forraje,,,,,,,,,,,,,,,,,,,,,,,,,,,,,,,,,,,,,,,,,,,,,,,,,,,,,,,,,,,,,,,,,,,,1,0,1,0,0,4,4,5,,,,,,,,,,,,,,,,,,,,,,,,,,,,,,,,,,,,,,,,,,,,,,,,,,,,,,,part001,B,John,Smith,39,Hombre,México,Tucson,"Universidad (diplomatura, licenciatura)",español,2019_Apr_15_1426,Segmentation,3.0.5,60.140482152515936,
,,,,filleritem6,reguero,regato,tocida,simona,cizalla,vantema,dezida,ramaje,,,,,,,,,,,,,,,,,,,,,,,,,,,,,,,,,,,,,,,,,,,,,,,,,,,,,,,,,,,,,,,,,,,,1,0,1,0,0,5,5,6,,,,,,,,,,,,,,,,,,,,,,,,,,,,,,,,,,,,,,,,,,,,,,,,,,,,,,,part001,B,John,Smith,39,Hombre,México,Tucson,"Universidad (diplomatura, licenciatura)",español,2019_Apr_15_1426,Segmentation,3.0.5,60.140482152515936,
,,,,carrierItem,silbido,cosigna,sildedo,venuro,venado,delbides,coserna,deltoides,,,,,,,,,,,,,,,,,,,,,,,,,,,,,,,,,,,,,,,,,,,,,,,,,,,,,,,,,,,,,,,,,,,,1,0,1,0,0,6,6,0,,,,,,,,,,,,,,,,,,,,,,,,,,,,,,,,,,,,,,,,,,,,,,,,,,,,,,,part001,B,John,Smith,39,Hombre,México,Tucson,"Universidad (diplomatura, licenciatura)",español,2019_Apr_15_1426,Segmentation,3.0.5,60.140482152515936,
,,,,filleritem9,recodo,percance,rofiolo,tosaba,cornisa,ricobo,binima,sufragio,,,,,,,,,,,,,,,,,,,,,,,,,,,,,,,,,,,,,,,,,,,,,,,,,,,,,,,,,,,,,,,,,,,,1,0,1,0,0,7,7,9,,,,,,,,,,,,,,,,,,,,,,,,,,,,,,,,,,,,,,,,,,,,,,,,,,,,,,,part001,B,John,Smith,39,Hombre,México,Tucson,"Universidad (diplomatura, licenciatura)",español,2019_Apr_15_1426,Segmentation,3.0.5,60.140482152515936,
,,,,filleritem8,donaire,pureza,devillo,foscillo,cigoto,nocena,galgango,vaquilla,,,,,,,,,,,,,,,,,,,,,,,,,,,,,,,,,,,,,,,,,,,,,,,,,,,,,,,,,,,,,,,,,,,,1,0,1,0,0,8,8,8,,,,,,,,,,,,,,,,,,,,,,,,,,,,,,,,,,,,,,,,,,,,,,,,,,,,,,,part001,B,John,Smith,39,Hombre,México,Tucson,"Universidad (diplomatura, licenciatura)",español,2019_Apr_15_1426,Segmentation,3.0.5,60.140482152515936,
,,,,filleritem1,bacteria,farsante,nencida,parvaza,campaña,gimega,navura,burrada,,,,,,,,,,,,,,,,,,,,,,,,,,,,,,,,,,,,,,,,,,,,,,,,,,,,,,,,,,,,,,,,,,,,1,0,1,0,0,9,9,1,,,,,,,,,,,,,,,,,,,,,,,,,,,,,,,,,,,,,,,,,,,,,,,,,,,,,,,part001,B,John,Smith,39,Hombre,México,Tucson,"Universidad (diplomatura, licenciatura)",español,2019_Apr_15_1426,Segmentation,3.0.5,60.140482152515936,
,,,,targetSyl,si,co,sil,ve,ven,de,cos,del,,,,,,,,,,,,,,,,,,,,,,,,,,,,,,,,,,,,,,,,,,,,,,,,,,,,,,,,,,,,,,,,,,,,1,0,1,0,,,,,,,,,,,,,,,,,,,,,,,,,,,,,,,,,,,,,,,,,,,,,,,,,,,,,,,,,,,part001,B,John,Smith,39,Hombre,México,Tucson,"Universidad (diplomatura, licenciatura)",español,2019_Apr_15_1426,Segmentation,3.0.5,60.140482152515936,
,,,,filleritem6,reguero,regato,tocida,simona,cizalla,vantema,dezida,ramaje,,,,,,,,,,,,,,,,,,,,,,,,,,,,,,,,,,,,,,,,,,,,,,,,,,,,,,,,,,,,,,,,,,,,2,0,2,0,0,0,0,6,,,,,,,,,,,,,,,,,,,,,,,,,,,,,,,,,,,,,,,,,,,,,,,,,,,,,,,part001,B,John,Smith,39,Hombre,México,Tucson,"Universidad (diplomatura, licenciatura)",español,2019_Apr_15_1426,Segmentation,3.0.5,60.140482152515936,
,,,,filleritem3,congreso,vergüenza,deciro,sutnido,gozada,gaferdo,vavipo,varilla,,,,,,,,,,,,,,,,,,,,,,,,,,,,,,,,,,,,,,,,,,,,,,,,,,,,,,,,,,,,,,,,,,,,2,0,2,0,0,1,1,3,,,,,,,,,,,,,,,,,,,,,,,,,,,,,,,,,,,,,,,,,,,,,,,,,,,,,,,part001,B,John,Smith,39,Hombre,México,Tucson,"Universidad (diplomatura, licenciatura)",español,2019_Apr_15_1426,Segmentation,3.0.5,60.140482152515936,
,,,,carrierItem,silbido,cosigna,sildedo,venuro,venado,delbides,coserna,deltoides,,,,,,,,,,,,,,,,,,,,,,,,,,,,,,,,,,,,,,,,,,,,,,,,,,,,,,,,,,,,,,,,,,,,2,0,2,0,0,2,2,0,,,,,,,,,,,,,,,,,,,,,,,,,,,,,,,,,,,,,,,,,,,,,,,,,,,,,,,part001,B,John,Smith,39,Hombre,México,Tucson,"Universidad (diplomatura, licenciatura)",español,2019_Apr_15_1426,Segmentation,3.0.5,60.140482152515936,
,,,,filleritem9,recodo,percance,rofiolo,tosaba,cornisa,ricobo,binima,sufragio,,,,,,,,,,,,,,,,,,,,,,,,,,,,,,,,,,,,,,,,,,,,,,,,,,,,,,,,,,,,,,,,,,,,2,0,2,0,0,3,3,9,,,,,,,,,,,,,,,,,,,,,,,,,,,,,,,,,,,,,,,,,,,,,,,,,,,,,,,part001,B,John,Smith,39,Hombre,México,Tucson,"Universidad (diplomatura, licenciatura)",español,2019_Apr_15_1426,Segmentation,3.0.5,60.140482152515936,
,,,,filleritem7,noviazgo,ternera,tenvila,jagito,pocilga,vinsosta,fensuace,batuta,,,,,,,,,,,,,,,,,,,,,,,,,,,,,,,,,,,,,,,,,,,,,,,,,,,,,,,,,,,,,,,,,,,,2,0,2,0,0,4,4,7,,,,,,,,,,,,,,,,,,,,,,,,,,,,,,,,,,,,,,,,,,,,,,,,,,,,,,,part001,B,John,Smith,39,Hombre,México,Tucson,"Universidad (diplomatura, licenciatura)",español,2019_Apr_15_1426,Segmentation,3.0.5,60.140482152515936,
,,,,filleritem4,poniente,largueza,mordiso,cortupto,sordera,rorencio,dabtura,ropero,,,,,,,,,,,,,,,,,,,,,,,,,,,,,,,,,,,,,,,,,,,,,,,,,,,,,,,,,,,,,,,,,,,,2,0,2,0,0,5,5,4,,,,,,,,,,,,,,,,,,,,,,,,,,,,,,,,,,,,,,,,,,,,,,,,,,,,,,,part001,B,John,Smith,39,Hombre,México,Tucson,"Universidad (diplomatura, licenciatura)",español,2019_Apr_15_1426,Segmentation,3.0.5,60.140482152515936,
,,,,filleritem5,concepto,rabillo,vangurdo,tolina,rasguño,tusvuja,tencrido,forraje,,,,,,,,,,,,,,,,,,,,,,,,,,,,,,,,,,,,,,,,,,,,,,,,,,,,,,,,,,,,,,,,,,,,2,0,2,0,0,6,6,5,,,,,,,,,,,,,,,,,,,,,,,,,,,,,,,,,,,,,,,,,,,,,,,,,,,,,,,part001,B,John,Smith,39,Hombre,México,Tucson,"Universidad (diplomatura, licenciatura)",español,2019_Apr_15_1426,Segmentation,3.0.5,60.140482152515936,
,,,,filleritem8,donaire,pureza,devillo,foscillo,cigoto,nocena,galgango,vaquilla,,,,,,,,,,,,,,,,,,,,,,,,,,,,,,,,,,,,,,,,,,,,,,,,,,,,,,,,,,,,,,,,,,,,2,0,2,0,0,7,7,8,,,,,,,,,,,,,,,,,,,,,,,,,,,,,,,,,,,,,,,,,,,,,,,,,,,,,,,part001,B,John,Smith,39,Hombre,México,Tucson,"Universidad (diplomatura, licenciatura)",español,2019_Apr_15_1426,Segmentation,3.0.5,60.140482152515936,
,,,,filleritem1,bacteria,farsante,nencida,parvaza,campaña,gimega,navura,burrada,,,,,,,,,,,,,,,,,,,,,,,,,,,,,,,,,,,,,,,,,,,,,,,,,,,,,,,,,,,,,,,,,,,,2,0,2,0,0,8,8,1,,,,,,,,,,,,,,,,,,,,,,,,,,,,,,,,,,,,,,,,,,,,,,,,,,,,,,,part001,B,John,Smith,39,Hombre,México,Tucson,"Universidad (diplomatura, licenciatura)",español,2019_Apr_15_1426,Segmentation,3.0.5,60.140482152515936,
,,,,filleritem2,confianza,rivera,farime,tarsallo,sarcasmo,bascana,purjida,tungsteno,,,,,,,,,,,,,,,,,,,,,,,,,,,,,,,,,,,,,,,,,,,,,,,,,,,,,,,,,,,,,,,,,,,,2,0,2,0,0,9,9,2,,,,,,,,,,,,,,,,,,,,,,,,,,,,,,,,,,,,,,,,,,,,,,,,,,,,,,,part001,B,John,Smith,39,Hombre,México,Tucson,"Universidad (diplomatura, licenciatura)",español,2019_Apr_15_1426,Segmentation,3.0.5,60.140482152515936,
,,,,targetSyl,si,co,sil,ve,ven,de,cos,del,,,,,,,,,,,,,,,,,,,,,,,,,,,,,,,,,,,,,,,,,,,,,,,,,,,,,,,,,,,,,,,,,,,,2,0,2,0,,,,,,,,,,,,,,,,,,,,,,,,,,,,,,,,,,,,,,,,,,,,,,,,,,,,,,,,,,,part001,B,John,Smith,39,Hombre,México,Tucson,"Universidad (diplomatura, licenciatura)",español,2019_Apr_15_1426,Segmentation,3.0.5,60.140482152515936,
,,,,filleritem8,donaire,pureza,devillo,foscillo,cigoto,nocena,galgango,vaquilla,,,,,,,,,,,,,,,,,,,,,,,,,,,,,,,,,,,,,,,,,,,,,,,,,,,,,,,,,,,,,,,,,,,,3,0,3,0,0,0,0,8,,,,,,,,,,,,,,,,,,,,,,,,,,,,,,,,,,,,,,,,,,,,,,,,,,,,,,,part001,B,John,Smith,39,Hombre,México,Tucson,"Universidad (diplomatura, licenciatura)",español,2019_Apr_15_1426,Segmentation,3.0.5,60.140482152515936,
,,,,filleritem4,poniente,largueza,mordiso,cortupto,sordera,rorencio,dabtura,ropero,,,,,,,,,,,,,,,,,,,,,,,,,,,,,,,,,,,,,,,,,,,,,,,,,,,,,,,,,,,,,,,,,,,,3,0,3,0,0,1,1,4,,,,,,,,,,,,,,,,,,,,,,,,,,,,,,,,,,,,,,,,,,,,,,,,,,,,,,,part001,B,John,Smith,39,Hombre,México,Tucson,"Universidad (diplomatura, licenciatura)",español,2019_Apr_15_1426,Segmentation,3.0.5,60.140482152515936,
,,,,filleritem6,reguero,regato,tocida,simona,cizalla,vantema,dezida,ramaje,,,,,,,,,,,,,,,,,,,,,,,,,,,,,,,,,,,,,,,,,,,,,,,,,,,,,,,,,,,,,,,,,,,,3,0,3,0,0,2,2,6,,,,,,,,,,,,,,,,,,,,,,,,,,,,,,,,,,,,,,,,,,,,,,,,,,,,,,,part001,B,John,Smith,39,Hombre,México,Tucson,"Universidad (diplomatura, licenciatura)",español,2019_Apr_15_1426,Segmentation,3.0.5,60.140482152515936,
,,,,carrierItem,silbido,cosigna,sildedo,venuro,venado,delbides,coserna,deltoides,,,,,,,,,,,,,,,,,,,,,,,,,,,,,,,,,,,,,,,,,,,,,,,,,,,,,,,,,,,,,,,,,,,,3,0,3,0,0,3,3,0,,,,,,,,,,,,,,,,,,,,,,,,,,,,,,,,,,,,,,,,,,,,,,,,,,,,,,,part001,B,John,Smith,39,Hombre,México,Tucson,"Universidad (diplomatura, licenciatura)",español,2019_Apr_15_1426,Segmentation,3.0.5,60.140482152515936,
,,,,filleritem5,concepto,rabillo,vangurdo,tolina,rasguño,tusvuja,tencrido,forraje,,,,,,,,,,,,,,,,,,,,,,,,,,,,,,,,,,,,,,,,,,,,,,,,,,,,,,,,,,,,,,,,,,,,3,0,3,0,0,4,4,5,,,,,,,,,,,,,,,,,,,,,,,,,,,,,,,,,,,,,,,,,,,,,,,,,,,,,,,part001,B,John,Smith,39,Hombre,México,Tucson,"Universidad (diplomatura, licenciatura)",español,2019_Apr_15_1426,Segmentation,3.0.5,60.140482152515936,
,,,,filleritem9,recodo,percance,rofiolo,tosaba,cornisa,ricobo,binima,sufragio,,,,,,,,,,,,,,,,,,,,,,,,,,,,,,,,,,,,,,,,,,,,,,,,,,,,,,,,,,,,,,,,,,,,3,0,3,0,0,5,5,9,,,,,,,,,,,,,,,,,,,,,,,,,,,,,,,,,,,,,,,,,,,,,,,,,,,,,,,part001,B,John,Smith,39,Hombre,México,Tucson,"Universidad (diplomatura, licenciatura)",español,2019_Apr_15_1426,Segmentation,3.0.5,60.140482152515936,
,,,,filleritem7,noviazgo,ternera,tenvila,jagito,pocilga,vinsosta,fensuace,batuta,,,,,,,,,,,,,,,,,,,,,,,,,,,,,,,,,,,,,,,,,,,,,,,,,,,,,,,,,,,,,,,,,,,,3,0,3,0,0,6,6,7,,,,,,,,,,,,,,,,,,,,,,,,,,,,,,,,,,,,,,,,,,,,,,,,,,,,,,,part001,B,John,Smith,39,Hombre,México,Tucson,"Universidad (diplomatura, licenciatura)",español,2019_Apr_15_1426,Segmentation,3.0.5,60.140482152515936,
,,,,filleritem2,confianza,rivera,farime,tarsallo,sarcasmo,bascana,purjida,tungsteno,,,,,,,,,,,,,,,,,,,,,,,,,,,,,,,,,,,,,,,,,,,,,,,,,,,,,,,,,,,,,,,,,,,,3,0,3,0,0,7,7,2,,,,,,,,,,,,,,,,,,,,,,,,,,,,,,,,,,,,,,,,,,,,,,,,,,,,,,,part001,B,John,Smith,39,Hombre,México,Tucson,"Universidad (diplomatura, licenciatura)",español,2019_Apr_15_1426,Segmentation,3.0.5,60.140482152515936,
,,,,filleritem3,congreso,vergüenza,deciro,sutnido,gozada,gaferdo,vavipo,varilla,,,,,,,,,,,,,,,,,,,,,,,,,,,,,,,,,,,,,,,,,,,,,,,,,,,,,,,,,,,,,,,,,,,,3,0,3,0,0,8,8,3,,,,,,,,,,,,,,,,,,,,,,,,,,,,,,,,,,,,,,,,,,,,,,,,,,,,,,,part001,B,John,Smith,39,Hombre,México,Tucson,"Universidad (diplomatura, licenciatura)",español,2019_Apr_15_1426,Segmentation,3.0.5,60.140482152515936,
,,,,filleritem1,bacteria,farsante,nencida,parvaza,campaña,gimega,navura,burrada,,,,,,,,,,,,,,,,,,,,,,,,,,,,,,,,,,,,,,,,,,,,,,,,,,,,,,,,,,,,,,,,,,,,3,0,3,0,0,9,9,1,,,,,,,,,,,,,,,,,,,,,,,,,,,,,,,,,,,,,,,,,,,,,,,,,,,,,,,part001,B,John,Smith,39,Hombre,México,Tucson,"Universidad (diplomatura, licenciatura)",español,2019_Apr_15_1426,Segmentation,3.0.5,60.140482152515936,
,,,,targetSyl,si,co,sil,ve,ven,de,cos,del,,,,,,,,,,,,,,,,,,,,,,,,,,,,,,,,,,,,,,,,,,,,,,,,,,,,,,,,,,,,,,,,,,,,3,0,3,0,,,,,,,,,,,,,,,,,,,,,,,,,,,,,,,,,,,,,,,,,,,,,,,,,,,,,,,,,,,part001,B,John,Smith,39,Hombre,México,Tucson,"Universidad (diplomatura, licenciatura)",español,2019_Apr_15_1426,Segmentation,3.0.5,60.140482152515936,
,,,,filleritem4,poniente,largueza,mordiso,cortupto,sordera,rorencio,dabtura,ropero,,,,,,,,,,,,,,,,,,,,,,,,,,,,,,,,,,,,,,,,,,,,,,,,,,,,,,,,,,,,,,,,,,,,4,0,4,0,0,0,0,4,,,,,,,,,,,,,,,,,,,,,,,,,,,,,,,,,,,,,,,,,,,,,,,,,,,,,,,part001,B,John,Smith,39,Hombre,México,Tucson,"Universidad (diplomatura, licenciatura)",español,2019_Apr_15_1426,Segmentation,3.0.5,60.140482152515936,
,,,,carrierItem,silbido,cosigna,sildedo,venuro,venado,delbides,coserna,deltoides,,,,,,,,,,,,,,,,,,,,,,,,,,,,,,,,,,,,,,,,,,,,,,,,,,,,,,,,,,,,,,,,,,,,4,0,4,0,0,1,1,0,,,,,,,,,,,,,,,,,,,,,,,,,,,,,,,,,,,,,,,,,,,,,,,,,,,,,,,part001,B,John,Smith,39,Hombre,México,Tucson,"Universidad (diplomatura, licenciatura)",español,2019_Apr_15_1426,Segmentation,3.0.5,60.140482152515936,
,,,,filleritem3,congreso,vergüenza,deciro,sutnido,gozada,gaferdo,vavipo,varilla,,,,,,,,,,,,,,,,,,,,,,,,,,,,,,,,,,,,,,,,,,,,,,,,,,,,,,,,,,,,,,,,,,,,4,0,4,0,0,2,2,3,,,,,,,,,,,,,,,,,,,,,,,,,,,,,,,,,,,,,,,,,,,,,,,,,,,,,,,part001,B,John,Smith,39,Hombre,México,Tucson,"Universidad (diplomatura, licenciatura)",español,2019_Apr_15_1426,Segmentation,3.0.5,60.140482152515936,
,,,,filleritem1,bacteria,farsante,nencida,parvaza,campaña,gimega,navura,burrada,,,,,,,,,,,,,,,,,,,,,,,,,,,,,,,,,,,,,,,,,,,,,,,,,,,,,,,,,,,,,,,,,,,,4,0,4,0,0,3,3,1,,,,,,,,,,,,,,,,,,,,,,,,,,,,,,,,,,,,,,,,,,,,,,,,,,,,,,,part001,B,John,Smith,39,Hombre,México,Tucson,"Universidad (diplomatura, licenciatura)",español,2019_Apr_15_1426,Segmentation,3.0.5,60.140482152515936,
,,,,filleritem2,confianza,rivera,farime,tarsallo,sarcasmo,bascana,purjida,tungsteno,,,,,,,,,,,,,,,,,,,,,,,,,,,,,,,,,,,,,,,,,,,,,,,,,,,,,,,,,,,,,,,,,,,,4,0,4,0,0,4,4,2,,,,,,,,,,,,,,,,,,,,,,,,,,,,,,,,,,,,,,,,,,,,,,,,,,,,,,,part001,B,John,Smith,39,Hombre,México,Tucson,"Universidad (diplomatura, licenciatura)",español,2019_Apr_15_1426,Segmentation,3.0.5,60.140482152515936,
,,,,filleritem9,recodo,percance,rofiolo,tosaba,cornisa,ricobo,binima,sufragio,,,,,,,,,,,,,,,,,,,,,,,,,,,,,,,,,,,,,,,,,,,,,,,,,,,,,,,,,,,,,,,,,,,,4,0,4,0,0,5,5,9,,,,,,,,,,,,,,,,,,,,,,,,,,,,,,,,,,,,,,,,,,,,,,,,,,,,,,,part001,B,John,Smith,39,Hombre,México,Tucson,"Universidad (diplomatura, licenciatura)",español,2019_Apr_15_1426,Segmentation,3.0.5,60.140482152515936,
,,,,filleritem6,reguero,regato,tocida,simona,cizalla,vantema,dezida,ramaje,,,,,,,,,,,,,,,,,,,,,,,,,,,,,,,,,,,,,,,,,,,,,,,,,,,,,,,,,,,,,,,,,,,,4,0,4,0,0,6,6,6,,,,,,,,,,,,,,,,,,,,,,,,,,,,,,,,,,,,,,,,,,,,,,,,,,,,,,,part001,B,John,Smith,39,Hombre,México,Tucson,"Universidad (diplomatura, licenciatura)",español,2019_Apr_15_1426,Segmentation,3.0.5,60.140482152515936,
,,,,filleritem7,noviazgo,ternera,tenvila,jagito,pocilga,vinsosta,fensuace,batuta,,,,,,,,,,,,,,,,,,,,,,,,,,,,,,,,,,,,,,,,,,,,,,,,,,,,,,,,,,,,,,,,,,,,4,0,4,0,0,7,7,7,,,,,,,,,,,,,,,,,,,,,,,,,,,,,,,,,,,,,,,,,,,,,,,,,,,,,,,part001,B,John,Smith,39,Hombre,México,Tucson,"Universidad (diplomatura, licenciatura)",español,2019_Apr_15_1426,Segmentation,3.0.5,60.140482152515936,
,,,,filleritem5,concepto,rabillo,vangurdo,tolina,rasguño,tusvuja,tencrido,forraje,,,,,,,,,,,,,,,,,,,,,,,,,,,,,,,,,,,,,,,,,,,,,,,,,,,,,,,,,,,,,,,,,,,,4,0,4,0,0,8,8,5,,,,,,,,,,,,,,,,,,,,,,,,,,,,,,,,,,,,,,,,,,,,,,,,,,,,,,,part001,B,John,Smith,39,Hombre,México,Tucson,"Universidad (diplomatura, licenciatura)",español,2019_Apr_15_1426,Segmentation,3.0.5,60.140482152515936,
,,,,filleritem8,donaire,pureza,devillo,foscillo,cigoto,nocena,galgango,vaquilla,,,,,,,,,,,,,,,,,,,,,,,,,,,,,,,,,,,,,,,,,,,,,,,,,,,,,,,,,,,,,,,,,,,,4,0,4,0,0,9,9,8,,,,,,,,,,,,,,,,,,,,,,,,,,,,,,,,,,,,,,,,,,,,,,,,,,,,,,,part001,B,John,Smith,39,Hombre,México,Tucson,"Universidad (diplomatura, licenciatura)",español,2019_Apr_15_1426,Segmentation,3.0.5,60.140482152515936,
,,,,targetSyl,si,co,sil,ve,ven,de,cos,del,,,,,,,,,,,,,,,,,,,,,,,,,,,,,,,,,,,,,,,,,,,,,,,,,,,,,,,,,,,,,,,,,,,,4,0,4,0,,,,,,,,,,,,,,,,,,,,,,,,,,,,,,,,,,,,,,,,,,,,,,,,,,,,,,,,,,,part001,B,John,Smith,39,Hombre,México,Tucson,"Universidad (diplomatura, licenciatura)",español,2019_Apr_15_1426,Segmentation,3.0.5,60.140482152515936,
,,,,filleritem7,noviazgo,ternera,tenvila,jagito,pocilga,vinsosta,fensuace,batuta,,,,,,,,,,,,,,,,,,,,,,,,,,,,,,,,,,,,,,,,,,,,,,,,,,,,,,,,,,,,,,,,,,,,5,0,5,0,0,0,0,7,,,,,,,,,,,,,,,,,,,,,,,,,,,,,,,,,,,,,,,,,,,,,,,,,,,,,,,part001,B,John,Smith,39,Hombre,México,Tucson,"Universidad (diplomatura, licenciatura)",español,2019_Apr_15_1426,Segmentation,3.0.5,60.140482152515936,
,,,,filleritem9,recodo,percance,rofiolo,tosaba,cornisa,ricobo,binima,sufragio,,,,,,,,,,,,,,,,,,,,,,,,,,,,,,,,,,,,,,,,,,,,,,,,,,,,,,,,,,,,,,,,,,,,5,0,5,0,0,1,1,9,,,,,,,,,,,,,,,,,,,,,,,,,,,,,,,,,,,,,,,,,,,,,,,,,,,,,,,part001,B,John,Smith,39,Hombre,México,Tucson,"Universidad (diplomatura, licenciatura)",español,2019_Apr_15_1426,Segmentation,3.0.5,60.140482152515936,
,,,,filleritem5,concepto,rabillo,vangurdo,tolina,rasguño,tusvuja,tencrido,forraje,,,,,,,,,,,,,,,,,,,,,,,,,,,,,,,,,,,,,,,,,,,,,,,,,,,,,,,,,,,,,,,,,,,,5,0,5,0,0,2,2,5,,,,,,,,,,,,,,,,,,,,,,,,,,,,,,,,,,,,,,,,,,,,,,,,,,,,,,,part001,B,John,Smith,39,Hombre,México,Tucson,"Universidad (diplomatura, licenciatura)",español,2019_Apr_15_1426,Segmentation,3.0.5,60.140482152515936,
,,,,filleritem6,reguero,regato,tocida,simona,cizalla,vantema,dezida,ramaje,,,,,,,,,,,,,,,,,,,,,,,,,,,,,,,,,,,,,,,,,,,,,,,,,,,,,,,,,,,,,,,,,,,,5,0,5,0,0,3,3,6,,,,,,,,,,,,,,,,,,,,,,,,,,,,,,,,,,,,,,,,,,,,,,,,,,,,,,,part001,B,John,Smith,39,Hombre,México,Tucson,"Universidad (diplomatura, licenciatura)",español,2019_Apr_15_1426,Segmentation,3.0.5,60.140482152515936,
,,,,filleritem8,donaire,pureza,devillo,foscillo,cigoto,nocena,galgango,vaquilla,,,,,,,,,,,,,,,,,,,,,,,,,,,,,,,,,,,,,,,,,,,,,,,,,,,,,,,,,,,,,,,,,,,,5,0,5,0,0,4,4,8,,,,,,,,,,,,,,,,,,,,,,,,,,,,,,,,,,,,,,,,,,,,,,,,,,,,,,,part001,B,John,Smith,39,Hombre,México,Tucson,"Universidad (diplomatura, licenciatura)",español,2019_Apr_15_1426,Segmentation,3.0.5,60.140482152515936,
,,,,filleritem2,confianza,rivera,farime,tarsallo,sarcasmo,bascana,purjida,tungsteno,,,,,,,,,,,,,,,,,,,,,,,,,,,,,,,,,,,,,,,,,,,,,,,,,,,,,,,,,,,,,,,,,,,,5,0,5,0,0,5,5,2,,,,,,,,,,,,,,,,,,,,,,,,,,,,,,,,,,,,,,,,,,,,,,,,,,,,,,,part001,B,John,Smith,39,Hombre,México,Tucson,"Universidad (diplomatura, licenciatura)",español,2019_Apr_15_1426,Segmentation,3.0.5,60.140482152515936,
,,,,filleritem4,poniente,largueza,mordiso,cortupto,sordera,rorencio,dabtura,ropero,,,,,,,,,,,,,,,,,,,,,,,,,,,,,,,,,,,,,,,,,,,,,,,,,,,,,,,,,,,,,,,,,,,,5,0,5,0,0,6,6,4,,,,,,,,,,,,,,,,,,,,,,,,,,,,,,,,,,,,,,,,,,,,,,,,,,,,,,,part001,B,John,Smith,39,Hombre,México,Tucson,"Universidad (diplomatura, licenciatura)",español,2019_Apr_15_1426,Segmentation,3.0.5,60.140482152515936,
,,,,filleritem3,congreso,vergüenza,deciro,sutnido,gozada,gaferdo,vavipo,varilla,,,,,,,,,,,,,,,,,,,,,,,,,,,,,,,,,,,,,,,,,,,,,,,,,,,,,,,,,,,,,,,,,,,,5,0,5,0,0,7,7,3,,,,,,,,,,,,,,,,,,,,,,,,,,,,,,,,,,,,,,,,,,,,,,,,,,,,,,,part001,B,John,Smith,39,Hombre,México,Tucson,"Universidad (diplomatura, licenciatura)",español,2019_Apr_15_1426,Segmentation,3.0.5,60.140482152515936,
,,,,carrierItem,silbido,cosigna,sildedo,venuro,venado,delbides,coserna,deltoides,,,,,,,,,,,,,,,,,,,,,,,,,,,,,,,,,,,,,,,,,,,,,,,,,,,,,,,,,,,,,,,,,,,,5,0,5,0,0,8,8,0,,,,,,,,,,,,,,,,,,,,,,,,,,,,,,,,,,,,,,,,,,,,,,,,,,,,,,,part001,B,John,Smith,39,Hombre,México,Tucson,"Universidad (diplomatura, licenciatura)",español,2019_Apr_15_1426,Segmentation,3.0.5,60.140482152515936,
,,,,filleritem1,bacteria,farsante,nencida,parvaza,campaña,gimega,navura,burrada,,,,,,,,,,,,,,,,,,,,,,,,,,,,,,,,,,,,,,,,,,,,,,,,,,,,,,,,,,,,,,,,,,,,5,0,5,0,0,9,9,1,,,,,,,,,,,,,,,,,,,,,,,,,,,,,,,,,,,,,,,,,,,,,,,,,,,,,,,part001,B,John,Smith,39,Hombre,México,Tucson,"Universidad (diplomatura, licenciatura)",español,2019_Apr_15_1426,Segmentation,3.0.5,60.140482152515936,
,,,,targetSyl,si,co,sil,ve,ven,de,cos,del,,,,,,,,,,,,,,,,,,,,,,,,,,,,,,,,,,,,,,,,,,,,,,,,,,,,,,,,,,,,,,,,,,,,5,0,5,0,,,,,,,,,,,,,,,,,,,,,,,,,,,,,,,,,,,,,,,,,,,,,,,,,,,,,,,,,,,part001,B,John,Smith,39,Hombre,México,Tucson,"Universidad (diplomatura, licenciatura)",español,2019_Apr_15_1426,Segmentation,3.0.5,60.140482152515936,
,,,,filleritem7,noviazgo,ternera,tenvila,jagito,pocilga,vinsosta,fensuace,batuta,,,,,,,,,,,,,,,,,,,,,,,,,,,,,,,,,,,,,,,,,,,,,,,,,,,,,,,,,,,,,,,,,,,,6,0,6,0,0,0,0,7,,,,,,,,,,,,,,,,,,,,,,,,,,,,,,,,,,,,,,,,,,,,,,,,,,,,,,,part001,B,John,Smith,39,Hombre,México,Tucson,"Universidad (diplomatura, licenciatura)",español,2019_Apr_15_1426,Segmentation,3.0.5,60.140482152515936,
,,,,filleritem1,bacteria,farsante,nencida,parvaza,campaña,gimega,navura,burrada,,,,,,,,,,,,,,,,,,,,,,,,,,,,,,,,,,,,,,,,,,,,,,,,,,,,,,,,,,,,,,,,,,,,6,0,6,0,0,1,1,1,,,,,,,,,,,,,,,,,,,,,,,,,,,,,,,,,,,,,,,,,,,,,,,,,,,,,,,part001,B,John,Smith,39,Hombre,México,Tucson,"Universidad (diplomatura, licenciatura)",español,2019_Apr_15_1426,Segmentation,3.0.5,60.140482152515936,
,,,,filleritem8,donaire,pureza,devillo,foscillo,cigoto,nocena,galgango,vaquilla,,,,,,,,,,,,,,,,,,,,,,,,,,,,,,,,,,,,,,,,,,,,,,,,,,,,,,,,,,,,,,,,,,,,6,0,6,0,0,2,2,8,,,,,,,,,,,,,,,,,,,,,,,,,,,,,,,,,,,,,,,,,,,,,,,,,,,,,,,part001,B,John,Smith,39,Hombre,México,Tucson,"Universidad (diplomatura, licenciatura)",español,2019_Apr_15_1426,Segmentation,3.0.5,60.140482152515936,
,,,,carrierItem,silbido,cosigna,sildedo,venuro,venado,delbides,coserna,deltoides,,,,,,,,,,,,,,,,,,,,,,,,,,,,,,,,,,,,,,,,,,,,,,,,,,,,,,,,,,,,,,,,,,,,6,0,6,0,0,3,3,0,,,,,,,,,,,,,,,,,,,,,,,,,,,,,,,,,,,,,,,,,,,,,,,,,,,,,,,part001,B,John,Smith,39,Hombre,México,Tucson,"Universidad (diplomatura, licenciatura)",español,2019_Apr_15_1426,Segmentation,3.0.5,60.140482152515936,
,,,,filleritem6,reguero,regato,tocida,simona,cizalla,vantema,dezida,ramaje,,,,,,,,,,,,,,,,,,,,,,,,,,,,,,,,,,,,,,,,,,,,,,,,,,,,,,,,,,,,,,,,,,,,6,0,6,0,0,4,4,6,,,,,,,,,,,,,,,,,,,,,,,,,,,,,,,,,,,,,,,,,,,,,,,,,,,,,,,part001,B,John,Smith,39,Hombre,México,Tucson,"Universidad (diplomatura, licenciatura)",español,2019_Apr_15_1426,Segmentation,3.0.5,60.140482152515936,
,,,,filleritem2,confianza,rivera,farime,tarsallo,sarcasmo,bascana,purjida,tungsteno,,,,,,,,,,,,,,,,,,,,,,,,,,,,,,,,,,,,,,,,,,,,,,,,,,,,,,,,,,,,,,,,,,,,6,0,6,0,0,5,5,2,,,,,,,,,,,,,,,,,,,,,,,,,,,,,,,,,,,,,,,,,,,,,,,,,,,,,,,part001,B,John,Smith,39,Hombre,México,Tucson,"Universidad (diplomatura, licenciatura)",español,2019_Apr_15_1426,Segmentation,3.0.5,60.140482152515936,
,,,,filleritem5,concepto,rabillo,vangurdo,tolina,rasguño,tusvuja,tencrido,forraje,,,,,,,,,,,,,,,,,,,,,,,,,,,,,,,,,,,,,,,,,,,,,,,,,,,,,,,,,,,,,,,,,,,,6,0,6,0,0,6,6,5,,,,,,,,,,,,,,,,,,,,,,,,,,,,,,,,,,,,,,,,,,,,,,,,,,,,,,,part001,B,John,Smith,39,Hombre,México,Tucson,"Universidad (diplomatura, licenciatura)",español,2019_Apr_15_1426,Segmentation,3.0.5,60.140482152515936,
,,,,filleritem4,poniente,largueza,mordiso,cortupto,sordera,rorencio,dabtura,ropero,,,,,,,,,,,,,,,,,,,,,,,,,,,,,,,,,,,,,,,,,,,,,,,,,,,,,,,,,,,,,,,,,,,,6,0,6,0,0,7,7,4,,,,,,,,,,,,,,,,,,,,,,,,,,,,,,,,,,,,,,,,,,,,,,,,,,,,,,,part001,B,John,Smith,39,Hombre,México,Tucson,"Universidad (diplomatura, licenciatura)",español,2019_Apr_15_1426,Segmentation,3.0.5,60.140482152515936,
,,,,filleritem9,recodo,percance,rofiolo,tosaba,cornisa,ricobo,binima,sufragio,,,,,,,,,,,,,,,,,,,,,,,,,,,,,,,,,,,,,,,,,,,,,,,,,,,,,,,,,,,,,,,,,,,,6,0,6,0,0,8,8,9,,,,,,,,,,,,,,,,,,,,,,,,,,,,,,,,,,,,,,,,,,,,,,,,,,,,,,,part001,B,John,Smith,39,Hombre,México,Tucson,"Universidad (diplomatura, licenciatura)",español,2019_Apr_15_1426,Segmentation,3.0.5,60.140482152515936,
,,,,filleritem3,congreso,vergüenza,deciro,sutnido,gozada,gaferdo,vavipo,varilla,,,,,,,,,,,,,,,,,,,,,,,,,,,,,,,,,,,,,,,,,,,,,,,,,,,,,,,,,,,,,,,,,,,,6,0,6,0,0,9,9,3,,,,,,,,,,,,,,,,,,,,,,,,,,,,,,,,,,,,,,,,,,,,,,,,,,,,,,,part001,B,John,Smith,39,Hombre,México,Tucson,"Universidad (diplomatura, licenciatura)",español,2019_Apr_15_1426,Segmentation,3.0.5,60.140482152515936,
,,,,targetSyl,si,co,sil,ve,ven,de,cos,del,,,,,,,,,,,,,,,,,,,,,,,,,,,,,,,,,,,,,,,,,,,,,,,,,,,,,,,,,,,,,,,,,,,,6,0,6,0,,,,,,,,,,,,,,,,,,,,,,,,,,,,,,,,,,,,,,,,,,,,,,,,,,,,,,,,,,,part001,B,John,Smith,39,Hombre,México,Tucson,"Universidad (diplomatura, licenciatura)",español,2019_Apr_15_1426,Segmentation,3.0.5,60.140482152515936,
,,,,filleritem1,bacteria,farsante,nencida,parvaza,campaña,gimega,navura,burrada,,,,,,,,,,,,,,,,,,,,,,,,,,,,,,,,,,,,,,,,,,,,,,,,,,,,,,,,,,,,,,,,,,,,7,0,7,0,0,0,0,1,,,,,,,,,,,,,,,,,,,,,,,,,,,,,,,,,,,,,,,,,,,,,,,,,,,,,,,part001,B,John,Smith,39,Hombre,México,Tucson,"Universidad (diplomatura, licenciatura)",español,2019_Apr_15_1426,Segmentation,3.0.5,60.140482152515936,
,,,,filleritem8,donaire,pureza,devillo,foscillo,cigoto,nocena,galgango,vaquilla,,,,,,,,,,,,,,,,,,,,,,,,,,,,,,,,,,,,,,,,,,,,,,,,,,,,,,,,,,,,,,,,,,,,7,0,7,0,0,1,1,8,,,,,,,,,,,,,,,,,,,,,,,,,,,,,,,,,,,,,,,,,,,,,,,,,,,,,,,part001,B,John,Smith,39,Hombre,México,Tucson,"Universidad (diplomatura, licenciatura)",español,2019_Apr_15_1426,Segmentation,3.0.5,60.140482152515936,
,,,,filleritem9,recodo,percance,rofiolo,tosaba,cornisa,ricobo,binima,sufragio,,,,,,,,,,,,,,,,,,,,,,,,,,,,,,,,,,,,,,,,,,,,,,,,,,,,,,,,,,,,,,,,,,,,7,0,7,0,0,2,2,9,,,,,,,,,,,,,,,,,,,,,,,,,,,,,,,,,,,,,,,,,,,,,,,,,,,,,,,part001,B,John,Smith,39,Hombre,México,Tucson,"Universidad (diplomatura, licenciatura)",español,2019_Apr_15_1426,Segmentation,3.0.5,60.140482152515936,
,,,,filleritem4,poniente,largueza,mordiso,cortupto,sordera,rorencio,dabtura,ropero,,,,,,,,,,,,,,,,,,,,,,,,,,,,,,,,,,,,,,,,,,,,,,,,,,,,,,,,,,,,,,,,,,,,7,0,7,0,0,3,3,4,,,,,,,,,,,,,,,,,,,,,,,,,,,,,,,,,,,,,,,,,,,,,,,,,,,,,,,part001,B,John,Smith,39,Hombre,México,Tucson,"Universidad (diplomatura, licenciatura)",español,2019_Apr_15_1426,Segmentation,3.0.5,60.140482152515936,
,,,,filleritem6,reguero,regato,tocida,simona,cizalla,vantema,dezida,ramaje,,,,,,,,,,,,,,,,,,,,,,,,,,,,,,,,,,,,,,,,,,,,,,,,,,,,,,,,,,,,,,,,,,,,7,0,7,0,0,4,4,6,,,,,,,,,,,,,,,,,,,,,,,,,,,,,,,,,,,,,,,,,,,,,,,,,,,,,,,part001,B,John,Smith,39,Hombre,México,Tucson,"Universidad (diplomatura, licenciatura)",español,2019_Apr_15_1426,Segmentation,3.0.5,60.140482152515936,
,,,,filleritem5,concepto,rabillo,vangurdo,tolina,rasguño,tusvuja,tencrido,forraje,,,,,,,,,,,,,,,,,,,,,,,,,,,,,,,,,,,,,,,,,,,,,,,,,,,,,,,,,,,,,,,,,,,,7,0,7,0,0,5,5,5,,,,,,,,,,,,,,,,,,,,,,,,,,,,,,,,,,,,,,,,,,,,,,,,,,,,,,,part001,B,John,Smith,39,Hombre,México,Tucson,"Universidad (diplomatura, licenciatura)",español,2019_Apr_15_1426,Segmentation,3.0.5,60.140482152515936,
,,,,filleritem2,confianza,rivera,farime,tarsallo,sarcasmo,bascana,purjida,tungsteno,,,,,,,,,,,,,,,,,,,,,,,,,,,,,,,,,,,,,,,,,,,,,,,,,,,,,,,,,,,,,,,,,,,,7,0,7,0,0,6,6,2,,,,,,,,,,,,,,,,,,,,,,,,,,,,,,,,,,,,,,,,,,,,,,,,,,,,,,,part001,B,John,Smith,39,Hombre,México,Tucson,"Universidad (diplomatura, licenciatura)",español,2019_Apr_15_1426,Segmentation,3.0.5,60.140482152515936,
,,,,filleritem3,congreso,vergüenza,deciro,sutnido,gozada,gaferdo,vavipo,varilla,,,,,,,,,,,,,,,,,,,,,,,,,,,,,,,,,,,,,,,,,,,,,,,,,,,,,,,,,,,,,,,,,,,,7,0,7,0,0,7,7,3,,,,,,,,,,,,,,,,,,,,,,,,,,,,,,,,,,,,,,,,,,,,,,,,,,,,,,,part001,B,John,Smith,39,Hombre,México,Tucson,"Universidad (diplomatura, licenciatura)",español,2019_Apr_15_1426,Segmentation,3.0.5,60.140482152515936,
,,,,filleritem7,noviazgo,ternera,tenvila,jagito,pocilga,vinsosta,fensuace,batuta,,,,,,,,,,,,,,,,,,,,,,,,,,,,,,,,,,,,,,,,,,,,,,,,,,,,,,,,,,,,,,,,,,,,7,0,7,0,0,8,8,7,,,,,,,,,,,,,,,,,,,,,,,,,,,,,,,,,,,,,,,,,,,,,,,,,,,,,,,part001,B,John,Smith,39,Hombre,México,Tucson,"Universidad (diplomatura, licenciatura)",español,2019_Apr_15_1426,Segmentation,3.0.5,60.140482152515936,
,,,,carrierItem,silbido,cosigna,sildedo,venuro,venado,delbides,coserna,deltoides,,,,,,,,,,,,,,,,,,,,,,,,,,,,,,,,,,,,,,,,,,,,,,,,,,,,,,,,,,,,,,,,,,,,7,0,7,0,0,9,9,0,,,,,,,,,,,,,,,,,,,,,,,,,,,,,,,,,,,,,,,,,,,,,,,,,,,,,,,part001,B,John,Smith,39,Hombre,México,Tucson,"Universidad (diplomatura, licenciatura)",español,2019_Apr_15_1426,Segmentation,3.0.5,60.140482152515936,
,,,,targetSyl,si,co,sil,ve,ven,de,cos,del,,,,,,,,,,,,,,,,,,,,,,,,,,,,,,,,,,,,,,,,,,,,,,,,,,,,,,,,,,,,,,,,,,,,7,0,7,0,,,,,,,,,,,,,,,,,,,,,,,,,,,,,,,,,,,,,,,,,,,,,,,,,,,,,,,,,,,part001,B,John,Smith,39,Hombre,México,Tucson,"Universidad (diplomatura, licenciatura)",español,2019_Apr_15_1426,Segmentation,3.0.5,60.140482152515936,
,,,,,,,,,,,,,filleritem3,cambiazo,ginebra,biñena,postigo,verdura,nenedo,sucema,nurese,perdisno,depiaro,gordura,gantarna,remiendo,civillo,nulese,ternura,fogata,bicera,tecillo,cosdura,ventaja,decanro,conducta,sandalia,bimena,palmada,filete,solera,semilla,vislumbre,dulcura,vereda,fivalia,gifema,ruptura,nevera,varime,ciroca,gantina,fastidio,vestolcio,ventisca,ducoste,respuesta,pirijuo,ruñansa,puntilla,poltrona,,,,,,,,,,,,,,,,,,,,,,,,,,,0,0,0,0,0,0,0,3,,,,,,,,,,,,,,,,,,,,,,,,,,,,,,,,1,0.6526401930022985,,,,,,,,,,,,,,part001,B,John,Smith,39,Hombre,México,Tucson,"Universidad (diplomatura, licenciatura)",español,2019_Apr_15_1426,Segmentation,3.0.5,60.140482152515936,
,,,,,,,,,,,,,filleritem5,putada,jactancia,lunino,tortazo,vertiente,sobvondo,cicisa,ferfuera,nundero,tudala,fantoche,piglillo,farola,tecido,tildona,serpiente,mordisco,cabsero,tipallo,civicha,tintero,pospana,fortuna,bolzano,denfiña,bandera,felpudo,mensaje,sortija,lectura,nafiaca,jasmina,venetlo,torsenza,burbuja,barbilla,norita,detnana,zaldizo,pulgada,sinvera,pulsera,sitena,soborno,penvalla,cicaigo,vendaje,vivencia,,,,,,,,,,,,,,,,,,,,,,,,,,,0,0,0,0,0,1,1,5,,,,,,,,,,,,,,,,,,,,,,,,,,,,,,,,1,0.13632452100137016,,,,,,,,,,,,,,part001,B,John,Smith,39,Hombre,México,Tucson,"Universidad (diplomatura, licenciatura)",español,2019_Apr_15_1426,Segmentation,3.0.5,60.140482152515936,
,,,,,,,,,,,,,filleritem9,balbina,jinete,tonvanza,rejilla,teniente,fuztancia,punfullo,tenguga,nidero,fivancia,dominio,bimina,jarabe,cubteha,sufiasa,sepulcro,ciruelo,lultame,zuccancia,caljero,bigote,tercega,giralda,gotera,demonto,jaqueca,velero,tiniebla,sonido,barbecho,vuzarda,dureza,bardana,ruspina,ribera,navaja,manvera,sisluño,lisbombre,cilindro,cencera,vinilo,senrera,torija,lercuente,decibio,fineza,pizarra,,,,,,,,,,,,,,,,,,,,,,,,,,,0,0,0,0,0,2,2,9,,,,,,,,,,,,,,,,,,,,,,,,,,,,,,,,1,0.1696521699996083,,,,,,,,,,,,,,part001,B,John,Smith,39,Hombre,México,Tucson,"Universidad (diplomatura, licenciatura)",español,2019_Apr_15_1426,Segmentation,3.0.5,60.140482152515936,
,,,,,,,,,,,,,filleritem1,pantalla,sandía,vofida,tejado,pintura,depite,cabsiva,poncilla,ricofo,palcillo,langosta,biluesa,narciso,tomida,tulvano,juntura,certeza,docado,hicuila,senena,zancada,parvida,gorguera,tinaja,tidioma,ventana,porfía,lumbrera,renombre,submundo,balzalla,tartana,divona,lirina,talante,zarzuela,nesedo,tifencio,salfrabla,zapato,denciña,bengala,tidencio,portillo,demida,soponso,punzada,testigo,,,,,,,,,,,,,,,,,,,,,,,,,,,0,0,0,0,0,3,3,1,,,,,,,,,,,,,,,,,,,,,,,,,,,,,,,,1,0.20311005400071735,,,,,,,,,,,,,,part001,B,John,Smith,39,Hombre,México,Tucson,"Universidad (diplomatura, licenciatura)",español,2019_Apr_15_1426,Segmentation,3.0.5,60.140482152515936,
,,,,,,,,,,,,,filleritem8,veleta,juguete,fampioza,piragua,tesoro,sutmido,suñuela,reninso,canfleco,vinsenza,duquesa,vendagio,tetilla,duliste,pembanse,recado,gomina,gorente,viltancia,codoro,pupitre,tusorto,cigarra,pomada,talfrado,velorio,ribazo,sopapo,sotana,rapiña,vastimo,tocino,ventoble,lasgüenza,butaca,naranjo,fangurdo,zurdado,tivencio,vejiga,vobita,tisana,deroda,sureste,febago,fontama,rimero,tibieza,,,,,,,,,,,,,,,,,,,,,,,,,,,0,0,0,0,0,4,4,8,,,,,,,,,,,,,,,,,,,,,,,,,,,,,,,,1,0.25409023099928163,,,,,,,,,,,,,,part001,B,John,Smith,39,Hombre,México,Tucson,"Universidad (diplomatura, licenciatura)",español,2019_Apr_15_1426,Segmentation,3.0.5,60.140482152515936,
,,,,,,,,,,,,,filleritem4,campiña,solvencia,tovero,portento,tobillo,dedioro,puscalla,fascuna,vifema,nansaso,doncella,banzalla,fundillo,cunceza,numete,gentuza,mordaza,daviba,pargaza,bipero,cintura,taviño,vivero,pancarta,lectorio,pandilla,fondillo,pinchazo,torpeza,salchicha,zuscura,zarpazo,baldeblo,turquma,durmiente,persiana,fantarna,tocensia,nuseto,piltrafa,cicora,vigencia,banfalla,garbanzo,bercillo,cuntefa,luneta,lactancia,,,,,,,,,,,,,,,,,,,,,,,,,,,0,0,0,0,0,5,5,4,,,,,,,,,,,,,,,,,,,,,,,,,,,,,,,,1,0.2096494769975834,,,,,,,,,,,,,,part001,B,John,Smith,39,Hombre,México,Tucson,"Universidad (diplomatura, licenciatura)",español,2019_Apr_15_1426,Segmentation,3.0.5,60.140482152515936,
,,,,,,,,,,,,,carrierItem,rosario,permsio,cerliza,ganchillo,culebra,camofa,morbollo,limucna,bolipo,corteta,peseta,joruma,bolsillo,paslolla,garventa,volante,pastilla,pesdeña,moniga,murdallo,joroba,linele,paloma,cereza,rosepio,corbata,camisa,garaje,baldosa,moneda,corura,linterna,cosiba,cenoca,centavo,costilla,culitra,ganquillo,periga,morera,palbira,corona,volpeje,limpieza,casgollo,balbusa,castillo,murmullo,,,,,,,,,,,,,,,,,,,,,,,,,,,0,0,0,0,0,6,6,0,,,,,,,,,,,,,,,,,,,,,,,,,,,,,,,,1,0.20283415499943658,,,,,,,,,,,,,,part001,B,John,Smith,39,Hombre,México,Tucson,"Universidad (diplomatura, licenciatura)",español,2019_Apr_15_1426,Segmentation,3.0.5,60.140482152515936,
,,,,,,,,,,,,,filleritem2,lenguaje,soltura,moncura,zumbido,sarmiento,neteno,dinona,sobisco,rartanto,bitero,jilguero,cividra,gustillo,devita,cicauco,centeno,cordero,normaso,lisnombre,viztura,tumulto,sociare,gorjeo,sonrisa,cinsecho,bufete,pestillo,polvillo,tortuga,laxante,fimegra,portazo,mipcura,bitena,tornillo,perchero,dosgiente,pificha,canveta,venganza,cecaja,lanzazo,parsida,sobaco,nemeto,zictencia,mortaja,vestuario,,,,,,,,,,,,,,,,,,,,,,,,,,,0,0,0,0,0,7,7,2,,,,,,,,,,,,,,,,,,,,,,,,,,,,,,,,1,0.29897475999678136,,,,,,,,,,,,,,part001,B,John,Smith,39,Hombre,México,Tucson,"Universidad (diplomatura, licenciatura)",español,2019_Apr_15_1426,Segmentation,3.0.5,60.140482152515936,
,,,,,,,,,,,,,filleritem7,legajo,suceso,noñita,riqueza,fijeza,sunsanso,fensuale,costonche,tecterio,nastallo,jacinto,fuzallo,recato,rizgura,cuntela,tarima,rudeza,talaja,rucilla,siquija,vigilia,tornanga,regata,fajardo,canreza,salero,topacio,cimiento,picota,resabio,puljida,recurso,mifena,tarbenga,lavabo,redada,dipona,berana,vicime,taquilla,donania,bufido,meptrona,barcaza,dilisia,dosbiente,tobera,dolencia,,,,,,,,,,,,,,,,,,,,,,,,,,,0,0,0,0,0,8,8,7,,,,,,,,,,,,,,,,,,,,,,,,,,,,,,,,1,0.3682301879998704,,,,,,,,,,,,,,part001,B,John,Smith,39,Hombre,México,Tucson,"Universidad (diplomatura, licenciatura)",español,2019_Apr_15_1426,Segmentation,3.0.5,60.140482152515936,
,,,,,,,,,,,,,filleritem6,pileta,gusano,tunsuja,reliquia,tarjeta,tunruja,nacañe,fañeilla,recoltre,delido,laguna,tinneza,rastrillo,mingrago,mufenza,reducto,relente,tutmuja,fernuera,lastadia,piscina,poscallo,cornada,tinglado,fimallo,visillo,suspenso,tendencia,tersura,tufillo,binero,regazo,funclera,midena,viruela,viraje,permaza,tercajo,naverdo,vistazo,simedo,pesquisa,suseña,pozuelo,voltura,soreto,remanso,tapete,,,,,,,,,,,,,,,,,,,,,,,,,,,0,0,0,0,0,9,9,6,,,,,,,,,,,,,,,,,,,,,,,,,,,,,,,,1,0.20314282400067896,,,,,,,,,,,,,,part001,B,John,Smith,39,Hombre,México,Tucson,"Universidad (diplomatura, licenciatura)",español,2019_Apr_15_1426,Segmentation,3.0.5,60.140482152515936,
,,,,,,,,,,,,,targetSyl,ros,pe,ce,ga,cu,ca,mor,lim,bo,cor,pes,jor,bol,pa,ga,vo,pas,pe,mon,mu,jo,li,pa,cer,ro,co,ca,gar,ba,mon,co,lin,co,cen,ce,cos,cul,gan,per,mo,pal,cor,vol,li,ca,bal,cas,mur,,,,,,,,,,,,,,,,,,,,,,,,,,,0,0,0,0,,,,,,,,,,,,,,,,,,,,,,,,,,,,,,,,,,,,,,,,,,,,,,,,,,,part001,B,John,Smith,39,Hombre,México,Tucson,"Universidad (diplomatura, licenciatura)",español,2019_Apr_15_1426,Segmentation,3.0.5,60.140482152515936,
,,,,,,,,,,,,,filleritem1,pantalla,sandía,vofida,tejado,pintura,depite,cabsiva,poncilla,ricofo,palcillo,langosta,biluesa,narciso,tomida,tulvano,juntura,certeza,docado,hicuila,senena,zancada,parvida,gorguera,tinaja,tidioma,ventana,porfía,lumbrera,renombre,submundo,balzalla,tartana,divona,lirina,talante,zarzuela,nesedo,tifencio,salfrabla,zapato,denciña,bengala,tidencio,portillo,demida,soponso,punzada,testigo,,,,,,,,,,,,,,,,,,,,,,,,,,,1,0,1,0,0,0,0,1,,,,,,,,,,,,,,,,,,,,,,,,,,,,,,,,None,,,,,,,,,,,,,,,part001,B,John,Smith,39,Hombre,México,Tucson,"Universidad (diplomatura, licenciatura)",español,2019_Apr_15_1426,Segmentation,3.0.5,60.140482152515936,
,,,,,,,,,,,,,filleritem8,veleta,juguete,fampioza,piragua,tesoro,sutmido,suñuela,reninso,canfleco,vinsenza,duquesa,vendagio,tetilla,duliste,pembanse,recado,gomina,gorente,viltancia,codoro,pupitre,tusorto,cigarra,pomada,talfrado,velorio,ribazo,sopapo,sotana,rapiña,vastimo,tocino,ventoble,lasgüenza,butaca,naranjo,fangurdo,zurdado,tivencio,vejiga,vobita,tisana,deroda,sureste,febago,fontama,rimero,tibieza,,,,,,,,,,,,,,,,,,,,,,,,,,,1,0,1,0,0,1,1,8,,,,,,,,,,,,,,,,,,,,,,,,,,,,,,,,None,,,,,,,,,,,,,,,part001,B,John,Smith,39,Hombre,México,Tucson,"Universidad (diplomatura, licenciatura)",español,2019_Apr_15_1426,Segmentation,3.0.5,60.140482152515936,
,,,,,,,,,,,,,filleritem6,pileta,gusano,tunsuja,reliquia,tarjeta,tunruja,nacañe,fañeilla,recoltre,delido,laguna,tinneza,rastrillo,mingrago,mufenza,reducto,relente,tutmuja,fernuera,lastadia,piscina,poscallo,cornada,tinglado,fimallo,visillo,suspenso,tendencia,tersura,tufillo,binero,regazo,funclera,midena,viruela,viraje,permaza,tercajo,naverdo,vistazo,simedo,pesquisa,suseña,pozuelo,voltura,soreto,remanso,tapete,,,,,,,,,,,,,,,,,,,,,,,,,,,1,0,1,0,0,2,2,6,,,,,,,,,,,,,,,,,,,,,,,,,,,,,,,,1,0.3677330169994093,,,,,,,,,,,,,,part001,B,John,Smith,39,Hombre,México,Tucson,"Universidad (diplomatura, licenciatura)",español,2019_Apr_15_1426,Segmentation,3.0.5,60.140482152515936,
,,,,,,,,,,,,,filleritem5,putada,jactancia,lunino,tortazo,vertiente,sobvondo,cicisa,ferfuera,nundero,tudala,fantoche,piglillo,farola,tecido,tildona,serpiente,mordisco,cabsero,tipallo,civicha,tintero,pospana,fortuna,bolzano,denfiña,bandera,felpudo,mensaje,sortija,lectura,nafiaca,jasmina,venetlo,torsenza,burbuja,barbilla,norita,detnana,zaldizo,pulgada,sinvera,pulsera,sitena,soborno,penvalla,cicaigo,vendaje,vivencia,,,,,,,,,,,,,,,,,,,,,,,,,,,1,0,1,0,0,3,3,5,,,,,,,,,,,,,,,,,,,,,,,,,,,,,,,,1,0.10375369500252418,,,,,,,,,,,,,,part001,B,John,Smith,39,Hombre,México,Tucson,"Universidad (diplomatura, licenciatura)",español,2019_Apr_15_1426,Segmentation,3.0.5,60.140482152515936,
,,,,,,,,,,,,,filleritem7,legajo,suceso,noñita,riqueza,fijeza,sunsanso,fensuale,costonche,tecterio,nastallo,jacinto,fuzallo,recato,rizgura,cuntela,tarima,rudeza,talaja,rucilla,siquija,vigilia,tornanga,regata,fajardo,canreza,salero,topacio,cimiento,picota,resabio,puljida,recurso,mifena,tarbenga,lavabo,redada,dipona,berana,vicime,taquilla,donania,bufido,meptrona,barcaza,dilisia,dosbiente,tobera,dolencia,,,,,,,,,,,,,,,,,,,,,,,,,,,1,0,1,0,0,4,4,7,,,,,,,,,,,,,,,,,,,,,,,,,,,,,,,,1,0.15226622400223278,,,,,,,,,,,,,,part001,B,John,Smith,39,Hombre,México,Tucson,"Universidad (diplomatura, licenciatura)",español,2019_Apr_15_1426,Segmentation,3.0.5,60.140482152515936,
,,,,,,,,,,,,,filleritem9,balbina,jinete,tonvanza,rejilla,teniente,fuztancia,punfullo,tenguga,nidero,fivancia,dominio,bimina,jarabe,cubteha,sufiasa,sepulcro,ciruelo,lultame,zuccancia,caljero,bigote,tercega,giralda,gotera,demonto,jaqueca,velero,tiniebla,sonido,barbecho,vuzarda,dureza,bardana,ruspina,ribera,navaja,manvera,sisluño,lisbombre,cilindro,cencera,vinilo,senrera,torija,lercuente,decibio,fineza,pizarra,,,,,,,,,,,,,,,,,,,,,,,,,,,1,0,1,0,0,5,5,9,,,,,,,,,,,,,,,,,,,,,,,,,,,,,,,,1,0.1511474079998152,,,,,,,,,,,,,,part001,B,John,Smith,39,Hombre,México,Tucson,"Universidad (diplomatura, licenciatura)",español,2019_Apr_15_1426,Segmentation,3.0.5,60.140482152515936,
,,,,,,,,,,,,,filleritem4,campiña,solvencia,tovero,portento,tobillo,dedioro,puscalla,fascuna,vifema,nansaso,doncella,banzalla,fundillo,cunceza,numete,gentuza,mordaza,daviba,pargaza,bipero,cintura,taviño,vivero,pancarta,lectorio,pandilla,fondillo,pinchazo,torpeza,salchicha,zuscura,zarpazo,baldeblo,turquma,durmiente,persiana,fantarna,tocensia,nuseto,piltrafa,cicora,vigencia,banfalla,garbanzo,bercillo,cuntefa,luneta,lactancia,,,,,,,,,,,,,,,,,,,,,,,,,,,1,0,1,0,0,6,6,4,,,,,,,,,,,,,,,,,,,,,,,,,,,,,,,,1,0.18011730999933206,,,,,,,,,,,,,,part001,B,John,Smith,39,Hombre,México,Tucson,"Universidad (diplomatura, licenciatura)",español,2019_Apr_15_1426,Segmentation,3.0.5,60.140482152515936,
,,,,,,,,,,,,,filleritem3,cambiazo,ginebra,biñena,postigo,verdura,nenedo,sucema,nurese,perdisno,depiaro,gordura,gantarna,remiendo,civillo,nulese,ternura,fogata,bicera,tecillo,cosdura,ventaja,decanro,conducta,sandalia,bimena,palmada,filete,solera,semilla,vislumbre,dulcura,vereda,fivalia,gifema,ruptura,nevera,varime,ciroca,gantina,fastidio,vestolcio,ventisca,ducoste,respuesta,pirijuo,ruñansa,puntilla,poltrona,,,,,,,,,,,,,,,,,,,,,,,,,,,1,0,1,0,0,7,7,3,,,,,,,,,,,,,,,,,,,,,,,,,,,,,,,,1,0.1691371339984471,,,,,,,,,,,,,,part001,B,John,Smith,39,Hombre,México,Tucson,"Universidad (diplomatura, licenciatura)",español,2019_Apr_15_1426,Segmentation,3.0.5,60.140482152515936,
,,,,,,,,,,,,,filleritem2,lenguaje,soltura,moncura,zumbido,sarmiento,neteno,dinona,sobisco,rartanto,bitero,jilguero,cividra,gustillo,devita,cicauco,centeno,cordero,normaso,lisnombre,viztura,tumulto,sociare,gorjeo,sonrisa,cinsecho,bufete,pestillo,polvillo,tortuga,laxante,fimegra,portazo,mipcura,bitena,tornillo,perchero,dosgiente,pificha,canveta,venganza,cecaja,lanzazo,parsida,sobaco,nemeto,zictencia,mortaja,vestuario,,,,,,,,,,,,,,,,,,,,,,,,,,,1,0,1,0,0,8,8,2,,,,,,,,,,,,,,,,,,,,,,,,,,,,,,,,1,0.16421800100215478,,,,,,,,,,,,,,part001,B,John,Smith,39,Hombre,México,Tucson,"Universidad (diplomatura, licenciatura)",español,2019_Apr_15_1426,Segmentation,3.0.5,60.140482152515936,
,,,,,,,,,,,,,carrierItem,rosario,permsio,cerliza,ganchillo,culebra,camofa,morbollo,limucna,bolipo,corteta,peseta,joruma,bolsillo,paslolla,garventa,volante,pastilla,pesdeña,moniga,murdallo,joroba,linele,paloma,cereza,rosepio,corbata,camisa,garaje,baldosa,moneda,corura,linterna,cosiba,cenoca,centavo,costilla,culitra,ganquillo,periga,morera,palbira,corona,volpeje,limpieza,casgollo,balbusa,castillo,murmullo,,,,,,,,,,,,,,,,,,,,,,,,,,,1,0,1,0,0,9,9,0,,,,,,,,,,,,,,,,,,,,,,,,,,,,,,,,1,0.2119034819988883,,,,,,,,,,,,,,part001,B,John,Smith,39,Hombre,México,Tucson,"Universidad (diplomatura, licenciatura)",español,2019_Apr_15_1426,Segmentation,3.0.5,60.140482152515936,
,,,,,,,,,,,,,targetSyl,ros,pe,ce,ga,cu,ca,mor,lim,bo,cor,pes,jor,bol,pa,ga,vo,pas,pe,mon,mu,jo,li,pa,cer,ro,co,ca,gar,ba,mon,co,lin,co,cen,ce,cos,cul,gan,per,mo,pal,cor,vol,li,ca,bal,cas,mur,,,,,,,,,,,,,,,,,,,,,,,,,,,1,0,1,0,,,,,,,,,,,,,,,,,,,,,,,,,,,,,,,,,,,,,,,,,,,,,,,,,,,part001,B,John,Smith,39,Hombre,México,Tucson,"Universidad (diplomatura, licenciatura)",español,2019_Apr_15_1426,Segmentation,3.0.5,60.140482152515936,
,,,,,,,,,,,,,filleritem5,putada,jactancia,lunino,tortazo,vertiente,sobvondo,cicisa,ferfuera,nundero,tudala,fantoche,piglillo,farola,tecido,tildona,serpiente,mordisco,cabsero,tipallo,civicha,tintero,pospana,fortuna,bolzano,denfiña,bandera,felpudo,mensaje,sortija,lectura,nafiaca,jasmina,venetlo,torsenza,burbuja,barbilla,norita,detnana,zaldizo,pulgada,sinvera,pulsera,sitena,soborno,penvalla,cicaigo,vendaje,vivencia,,,,,,,,,,,,,,,,,,,,,,,,,,,2,0,2,0,0,0,0,5,,,,,,,,,,,,,,,,,,,,,,,,,,,,,,,,None,,,,,,,,,,,,,,,part001,B,John,Smith,39,Hombre,México,Tucson,"Universidad (diplomatura, licenciatura)",español,2019_Apr_15_1426,Segmentation,3.0.5,60.140482152515936,
,,,,,,,,,,,,,filleritem3,cambiazo,ginebra,biñena,postigo,verdura,nenedo,sucema,nurese,perdisno,depiaro,gordura,gantarna,remiendo,civillo,nulese,ternura,fogata,bicera,tecillo,cosdura,ventaja,decanro,conducta,sandalia,bimena,palmada,filete,solera,semilla,vislumbre,dulcura,vereda,fivalia,gifema,ruptura,nevera,varime,ciroca,gantina,fastidio,vestolcio,ventisca,ducoste,respuesta,pirijuo,ruñansa,puntilla,poltrona,,,,,,,,,,,,,,,,,,,,,,,,,,,2,0,2,0,0,1,1,3,,,,,,,,,,,,,,,,,,,,,,,,,,,,,,,,1,0.6015275760000804,,,,,,,,,,,,,,part001,B,John,Smith,39,Hombre,México,Tucson,"Universidad (diplomatura, licenciatura)",español,2019_Apr_15_1426,Segmentation,3.0.5,60.140482152515936,
,,,,,,,,,,,,,filleritem4,campiña,solvencia,tovero,portento,tobillo,dedioro,puscalla,fascuna,vifema,nansaso,doncella,banzalla,fundillo,cunceza,numete,gentuza,mordaza,daviba,pargaza,bipero,cintura,taviño,vivero,pancarta,lectorio,pandilla,fondillo,pinchazo,torpeza,salchicha,zuscura,zarpazo,baldeblo,turquma,durmiente,persiana,fantarna,tocensia,nuseto,piltrafa,cicora,vigencia,banfalla,garbanzo,bercillo,cuntefa,luneta,lactancia,,,,,,,,,,,,,,,,,,,,,,,,,,,2,0,2,0,0,2,2,4,,,,,,,,,,,,,,,,,,,,,,,,,,,,,,,,1,0.13818736400207854,,,,,,,,,,,,,,part001,B,John,Smith,39,Hombre,México,Tucson,"Universidad (diplomatura, licenciatura)",español,2019_Apr_15_1426,Segmentation,3.0.5,60.140482152515936,
,,,,,,,,,,,,,filleritem8,veleta,juguete,fampioza,piragua,tesoro,sutmido,suñuela,reninso,canfleco,vinsenza,duquesa,vendagio,tetilla,duliste,pembanse,recado,gomina,gorente,viltancia,codoro,pupitre,tusorto,cigarra,pomada,talfrado,velorio,ribazo,sopapo,sotana,rapiña,vastimo,tocino,ventoble,lasgüenza,butaca,naranjo,fangurdo,zurdado,tivencio,vejiga,vobita,tisana,deroda,sureste,febago,fontama,rimero,tibieza,,,,,,,,,,,,,,,,,,,,,,,,,,,2,0,2,0,0,3,3,8,,,,,,,,,,,,,,,,,,,,,,,,,,,,,,,,1,0.10273652199975913,,,,,,,,,,,,,,part001,B,John,Smith,39,Hombre,México,Tucson,"Universidad (diplomatura, licenciatura)",español,2019_Apr_15_1426,Segmentation,3.0.5,60.140482152515936,
,,,,,,,,,,,,,filleritem6,pileta,gusano,tunsuja,reliquia,tarjeta,tunruja,nacañe,fañeilla,recoltre,delido,laguna,tinneza,rastrillo,mingrago,mufenza,reducto,relente,tutmuja,fernuera,lastadia,piscina,poscallo,cornada,tinglado,fimallo,visillo,suspenso,tendencia,tersura,tufillo,binero,regazo,funclera,midena,viruela,viraje,permaza,tercajo,naverdo,vistazo,simedo,pesquisa,suseña,pozuelo,voltura,soreto,remanso,tapete,,,,,,,,,,,,,,,,,,,,,,,,,,,2,0,2,0,0,4,4,6,,,,,,,,,,,,,,,,,,,,,,,,,,,,,,,,1,0.1364446779989521,,,,,,,,,,,,,,part001,B,John,Smith,39,Hombre,México,Tucson,"Universidad (diplomatura, licenciatura)",español,2019_Apr_15_1426,Segmentation,3.0.5,60.140482152515936,
,,,,,,,,,,,,,carrierItem,rosario,permsio,cerliza,ganchillo,culebra,camofa,morbollo,limucna,bolipo,corteta,peseta,joruma,bolsillo,paslolla,garventa,volante,pastilla,pesdeña,moniga,murdallo,joroba,linele,paloma,cereza,rosepio,corbata,camisa,garaje,baldosa,moneda,corura,linterna,cosiba,cenoca,centavo,costilla,culitra,ganquillo,periga,morera,palbira,corona,volpeje,limpieza,casgollo,balbusa,castillo,murmullo,,,,,,,,,,,,,,,,,,,,,,,,,,,2,0,2,0,0,5,5,0,,,,,,,,,,,,,,,,,,,,,,,,,,,,,,,,1,0.11827533800169476,,,,,,,,,,,,,,part001,B,John,Smith,39,Hombre,México,Tucson,"Universidad (diplomatura, licenciatura)",español,2019_Apr_15_1426,Segmentation,3.0.5,60.140482152515936,
,,,,,,,,,,,,,filleritem2,lenguaje,soltura,moncura,zumbido,sarmiento,neteno,dinona,sobisco,rartanto,bitero,jilguero,cividra,gustillo,devita,cicauco,centeno,cordero,normaso,lisnombre,viztura,tumulto,sociare,gorjeo,sonrisa,cinsecho,bufete,pestillo,polvillo,tortuga,laxante,fimegra,portazo,mipcura,bitena,tornillo,perchero,dosgiente,pificha,canveta,venganza,cecaja,lanzazo,parsida,sobaco,nemeto,zictencia,mortaja,vestuario,,,,,,,,,,,,,,,,,,,,,,,,,,,2,0,2,0,0,6,6,2,,,,,,,,,,,,,,,,,,,,,,,,,,,,,,,,1,0.13099676100318902,,,,,,,,,,,,,,part001,B,John,Smith,39,Hombre,México,Tucson,"Universidad (diplomatura, licenciatura)",español,2019_Apr_15_1426,Segmentation,3.0.5,60.140482152515936,
,,,,,,,,,,,,,filleritem1,pantalla,sandía,vofida,tejado,pintura,depite,cabsiva,poncilla,ricofo,palcillo,langosta,biluesa,narciso,tomida,tulvano,juntura,certeza,docado,hicuila,senena,zancada,parvida,gorguera,tinaja,tidioma,ventana,porfía,lumbrera,renombre,submundo,balzalla,tartana,divona,lirina,talante,zarzuela,nesedo,tifencio,salfrabla,zapato,denciña,bengala,tidencio,portillo,demida,soponso,punzada,testigo,,,,,,,,,,,,,,,,,,,,,,,,,,,2,0,2,0,0,7,7,1,,,,,,,,,,,,,,,,,,,,,,,,,,,,,,,,1,0.08716426300088642,,,,,,,,,,,,,,part001,B,John,Smith,39,Hombre,México,Tucson,"Universidad (diplomatura, licenciatura)",español,2019_Apr_15_1426,Segmentation,3.0.5,60.140482152515936,
,,,,,,,,,,,,,filleritem9,balbina,jinete,tonvanza,rejilla,teniente,fuztancia,punfullo,tenguga,nidero,fivancia,dominio,bimina,jarabe,cubteha,sufiasa,sepulcro,ciruelo,lultame,zuccancia,caljero,bigote,tercega,giralda,gotera,demonto,jaqueca,velero,tiniebla,sonido,barbecho,vuzarda,dureza,bardana,ruspina,ribera,navaja,manvera,sisluño,lisbombre,cilindro,cencera,vinilo,senrera,torija,lercuente,decibio,fineza,pizarra,,,,,,,,,,,,,,,,,,,,,,,,,,,2,0,2,0,0,8,8,9,,,,,,,,,,,,,,,,,,,,,,,,,,,,,,,,1,0.1323664329975145,,,,,,,,,,,,,,part001,B,John,Smith,39,Hombre,México,Tucson,"Universidad (diplomatura, licenciatura)",español,2019_Apr_15_1426,Segmentation,3.0.5,60.140482152515936,
,,,,,,,,,,,,,filleritem7,legajo,suceso,noñita,riqueza,fijeza,sunsanso,fensuale,costonche,tecterio,nastallo,jacinto,fuzallo,recato,rizgura,cuntela,tarima,rudeza,talaja,rucilla,siquija,vigilia,tornanga,regata,fajardo,canreza,salero,topacio,cimiento,picota,resabio,puljida,recurso,mifena,tarbenga,lavabo,redada,dipona,berana,vicime,taquilla,donania,bufido,meptrona,barcaza,dilisia,dosbiente,tobera,dolencia,,,,,,,,,,,,,,,,,,,,,,,,,,,2,0,2,0,0,9,9,7,,,,,,,,,,,,,,,,,,,,,,,,,,,,,,,,1,0.14969589999964228,,,,,,,,,,,,,,part001,B,John,Smith,39,Hombre,México,Tucson,"Universidad (diplomatura, licenciatura)",español,2019_Apr_15_1426,Segmentation,3.0.5,60.140482152515936,
,,,,,,,,,,,,,targetSyl,ros,pe,ce,ga,cu,ca,mor,lim,bo,cor,pes,jor,bol,pa,ga,vo,pas,pe,mon,mu,jo,li,pa,cer,ro,co,ca,gar,ba,mon,co,lin,co,cen,ce,cos,cul,gan,per,mo,pal,cor,vol,li,ca,bal,cas,mur,,,,,,,,,,,,,,,,,,,,,,,,,,,2,0,2,0,,,,,,,,,,,,,,,,,,,,,,,,,,,,,,,,,,,,,,,,,,,,,,,,,,,part001,B,John,Smith,39,Hombre,México,Tucson,"Universidad (diplomatura, licenciatura)",español,2019_Apr_15_1426,Segmentation,3.0.5,60.140482152515936,
,,,,,,,,,,,,,filleritem3,cambiazo,ginebra,biñena,postigo,verdura,nenedo,sucema,nurese,perdisno,depiaro,gordura,gantarna,remiendo,civillo,nulese,ternura,fogata,bicera,tecillo,cosdura,ventaja,decanro,conducta,sandalia,bimena,palmada,filete,solera,semilla,vislumbre,dulcura,vereda,fivalia,gifema,ruptura,nevera,varime,ciroca,gantina,fastidio,vestolcio,ventisca,ducoste,respuesta,pirijuo,ruñansa,puntilla,poltrona,,,,,,,,,,,,,,,,,,,,,,,,,,,3,0,3,0,0,0,0,3,,,,,,,,,,,,,,,,,,,,,,,,,,,,,,,,None,,,,,,,,,,,,,,,part001,B,John,Smith,39,Hombre,México,Tucson,"Universidad (diplomatura, licenciatura)",español,2019_Apr_15_1426,Segmentation,3.0.5,60.140482152515936,
,,,,,,,,,,,,,filleritem1,pantalla,sandía,vofida,tejado,pintura,depite,cabsiva,poncilla,ricofo,palcillo,langosta,biluesa,narciso,tomida,tulvano,juntura,certeza,docado,hicuila,senena,zancada,parvida,gorguera,tinaja,tidioma,ventana,porfía,lumbrera,renombre,submundo,balzalla,tartana,divona,lirina,talante,zarzuela,nesedo,tifencio,salfrabla,zapato,denciña,bengala,tidencio,portillo,demida,soponso,punzada,testigo,,,,,,,,,,,,,,,,,,,,,,,,,,,3,0,3,0,0,1,1,1,,,,,,,,,,,,,,,,,,,,,,,,,,,,,,,,1,0.18571635199987213,,,,,,,,,,,,,,part001,B,John,Smith,39,Hombre,México,Tucson,"Universidad (diplomatura, licenciatura)",español,2019_Apr_15_1426,Segmentation,3.0.5,60.140482152515936,
,,,,,,,,,,,,,filleritem9,balbina,jinete,tonvanza,rejilla,teniente,fuztancia,punfullo,tenguga,nidero,fivancia,dominio,bimina,jarabe,cubteha,sufiasa,sepulcro,ciruelo,lultame,zuccancia,caljero,bigote,tercega,giralda,gotera,demonto,jaqueca,velero,tiniebla,sonido,barbecho,vuzarda,dureza,bardana,ruspina,ribera,navaja,manvera,sisluño,lisbombre,cilindro,cencera,vinilo,senrera,torija,lercuente,decibio,fineza,pizarra,,,,,,,,,,,,,,,,,,,,,,,,,,,3,0,3,0,0,2,2,9,,,,,,,,,,,,,,,,,,,,,,,,,,,,,,,,1,0.15273256599903107,,,,,,,,,,,,,,part001,B,John,Smith,39,Hombre,México,Tucson,"Universidad (diplomatura, licenciatura)",español,2019_Apr_15_1426,Segmentation,3.0.5,60.140482152515936,
,,,,,,,,,,,,,carrierItem,rosario,permsio,cerliza,ganchillo,culebra,camofa,morbollo,limucna,bolipo,corteta,peseta,joruma,bolsillo,paslolla,garventa,volante,pastilla,pesdeña,moniga,murdallo,joroba,linele,paloma,cereza,rosepio,corbata,camisa,garaje,baldosa,moneda,corura,linterna,cosiba,cenoca,centavo,costilla,culitra,ganquillo,periga,morera,palbira,corona,volpeje,limpieza,casgollo,balbusa,castillo,murmullo,,,,,,,,,,,,,,,,,,,,,,,,,,,3,0,3,0,0,3,3,0,,,,,,,,,,,,,,,,,,,,,,,,,,,,,,,,1,0.11994883399893297,,,,,,,,,,,,,,part001,B,John,Smith,39,Hombre,México,Tucson,"Universidad (diplomatura, licenciatura)",español,2019_Apr_15_1426,Segmentation,3.0.5,60.140482152515936,
,,,,,,,,,,,,,filleritem7,legajo,suceso,noñita,riqueza,fijeza,sunsanso,fensuale,costonche,tecterio,nastallo,jacinto,fuzallo,recato,rizgura,cuntela,tarima,rudeza,talaja,rucilla,siquija,vigilia,tornanga,regata,fajardo,canreza,salero,topacio,cimiento,picota,resabio,puljida,recurso,mifena,tarbenga,lavabo,redada,dipona,berana,vicime,taquilla,donania,bufido,meptrona,barcaza,dilisia,dosbiente,tobera,dolencia,,,,,,,,,,,,,,,,,,,,,,,,,,,3,0,3,0,0,4,4,7,,,,,,,,,,,,,,,,,,,,,,,,,,,,,,,,1,0.14993716300159576,,,,,,,,,,,,,,part001,B,John,Smith,39,Hombre,México,Tucson,"Universidad (diplomatura, licenciatura)",español,2019_Apr_15_1426,Segmentation,3.0.5,60.140482152515936,
,,,,,,,,,,,,,filleritem5,putada,jactancia,lunino,tortazo,vertiente,sobvondo,cicisa,ferfuera,nundero,tudala,fantoche,piglillo,farola,tecido,tildona,serpiente,mordisco,cabsero,tipallo,civicha,tintero,pospana,fortuna,bolzano,denfiña,bandera,felpudo,mensaje,sortija,lectura,nafiaca,jasmina,venetlo,torsenza,burbuja,barbilla,norita,detnana,zaldizo,pulgada,sinvera,pulsera,sitena,soborno,penvalla,cicaigo,vendaje,vivencia,,,,,,,,,,,,,,,,,,,,,,,,,,,3,0,3,0,0,5,5,5,,,,,,,,,,,,,,,,,,,,,,,,,,,,,,,,1,0.15236097099841572,,,,,,,,,,,,,,part001,B,John,Smith,39,Hombre,México,Tucson,"Universidad (diplomatura, licenciatura)",español,2019_Apr_15_1426,Segmentation,3.0.5,60.140482152515936,
,,,,,,,,,,,,,filleritem2,lenguaje,soltura,moncura,zumbido,sarmiento,neteno,dinona,sobisco,rartanto,bitero,jilguero,cividra,gustillo,devita,cicauco,centeno,cordero,normaso,lisnombre,viztura,tumulto,sociare,gorjeo,sonrisa,cinsecho,bufete,pestillo,polvillo,tortuga,laxante,fimegra,portazo,mipcura,bitena,tornillo,perchero,dosgiente,pificha,canveta,venganza,cecaja,lanzazo,parsida,sobaco,nemeto,zictencia,mortaja,vestuario,,,,,,,,,,,,,,,,,,,,,,,,,,,3,0,3,0,0,6,6,2,,,,,,,,,,,,,,,,,,,,,,,,,,,,,,,,1,0.15376865700091003,,,,,,,,,,,,,,part001,B,John,Smith,39,Hombre,México,Tucson,"Universidad (diplomatura, licenciatura)",español,2019_Apr_15_1426,Segmentation,3.0.5,60.140482152515936,
,,,,,,,,,,,,,filleritem6,pileta,gusano,tunsuja,reliquia,tarjeta,tunruja,nacañe,fañeilla,recoltre,delido,laguna,tinneza,rastrillo,mingrago,mufenza,reducto,relente,tutmuja,fernuera,lastadia,piscina,poscallo,cornada,tinglado,fimallo,visillo,suspenso,tendencia,tersura,tufillo,binero,regazo,funclera,midena,viruela,viraje,permaza,tercajo,naverdo,vistazo,simedo,pesquisa,suseña,pozuelo,voltura,soreto,remanso,tapete,,,,,,,,,,,,,,,,,,,,,,,,,,,3,0,3,0,0,7,7,6,,,,,,,,,,,,,,,,,,,,,,,,,,,,,,,,1,0.1373497499989753,,,,,,,,,,,,,,part001,B,John,Smith,39,Hombre,México,Tucson,"Universidad (diplomatura, licenciatura)",español,2019_Apr_15_1426,Segmentation,3.0.5,60.140482152515936,
,,,,,,,,,,,,,filleritem8,veleta,juguete,fampioza,piragua,tesoro,sutmido,suñuela,reninso,canfleco,vinsenza,duquesa,vendagio,tetilla,duliste,pembanse,recado,gomina,gorente,viltancia,codoro,pupitre,tusorto,cigarra,pomada,talfrado,velorio,ribazo,sopapo,sotana,rapiña,vastimo,tocino,ventoble,lasgüenza,butaca,naranjo,fangurdo,zurdado,tivencio,vejiga,vobita,tisana,deroda,sureste,febago,fontama,rimero,tibieza,,,,,,,,,,,,,,,,,,,,,,,,,,,3,0,3,0,0,8,8,8,,,,,,,,,,,,,,,,,,,,,,,,,,,,,,,,1,0.18751784000050975,,,,,,,,,,,,,,part001,B,John,Smith,39,Hombre,México,Tucson,"Universidad (diplomatura, licenciatura)",español,2019_Apr_15_1426,Segmentation,3.0.5,60.140482152515936,
,,,,,,,,,,,,,filleritem4,campiña,solvencia,tovero,portento,tobillo,dedioro,puscalla,fascuna,vifema,nansaso,doncella,banzalla,fundillo,cunceza,numete,gentuza,mordaza,daviba,pargaza,bipero,cintura,taviño,vivero,pancarta,lectorio,pandilla,fondillo,pinchazo,torpeza,salchicha,zuscura,zarpazo,baldeblo,turquma,durmiente,persiana,fantarna,tocensia,nuseto,piltrafa,cicora,vigencia,banfalla,garbanzo,bercillo,cuntefa,luneta,lactancia,,,,,,,,,,,,,,,,,,,,,,,,,,,3,0,3,0,0,9,9,4,,,,,,,,,,,,,,,,,,,,,,,,,,,,,,,,1,0.54716627200105,,,,,,,,,,,,,,part001,B,John,Smith,39,Hombre,México,Tucson,"Universidad (diplomatura, licenciatura)",español,2019_Apr_15_1426,Segmentation,3.0.5,60.140482152515936,
,,,,,,,,,,,,,targetSyl,ros,pe,ce,ga,cu,ca,mor,lim,bo,cor,pes,jor,bol,pa,ga,vo,pas,pe,mon,mu,jo,li,pa,cer,ro,co,ca,gar,ba,mon,co,lin,co,cen,ce,cos,cul,gan,per,mo,pal,cor,vol,li,ca,bal,cas,mur,,,,,,,,,,,,,,,,,,,,,,,,,,,3,0,3,0,,,,,,,,,,,,,,,,,,,,,,,,,,,,,,,,,,,,,,,,,,,,,,,,,,,part001,B,John,Smith,39,Hombre,México,Tucson,"Universidad (diplomatura, licenciatura)",español,2019_Apr_15_1426,Segmentation,3.0.5,60.140482152515936,
,,,,,,,,,,,,,filleritem7,legajo,suceso,noñita,riqueza,fijeza,sunsanso,fensuale,costonche,tecterio,nastallo,jacinto,fuzallo,recato,rizgura,cuntela,tarima,rudeza,talaja,rucilla,siquija,vigilia,tornanga,regata,fajardo,canreza,salero,topacio,cimiento,picota,resabio,puljida,recurso,mifena,tarbenga,lavabo,redada,dipona,berana,vicime,taquilla,donania,bufido,meptrona,barcaza,dilisia,dosbiente,tobera,dolencia,,,,,,,,,,,,,,,,,,,,,,,,,,,4,0,4,0,0,0,0,7,,,,,,,,,,,,,,,,,,,,,,,,,,,,,,,,1,0.751790655998775,,,,,,,,,,,,,,part001,B,John,Smith,39,Hombre,México,Tucson,"Universidad (diplomatura, licenciatura)",español,2019_Apr_15_1426,Segmentation,3.0.5,60.140482152515936,
,,,,,,,,,,,,,filleritem8,veleta,juguete,fampioza,piragua,tesoro,sutmido,suñuela,reninso,canfleco,vinsenza,duquesa,vendagio,tetilla,duliste,pembanse,recado,gomina,gorente,viltancia,codoro,pupitre,tusorto,cigarra,pomada,talfrado,velorio,ribazo,sopapo,sotana,rapiña,vastimo,tocino,ventoble,lasgüenza,butaca,naranjo,fangurdo,zurdado,tivencio,vejiga,vobita,tisana,deroda,sureste,febago,fontama,rimero,tibieza,,,,,,,,,,,,,,,,,,,,,,,,,,,4,0,4,0,0,1,1,8,,,,,,,,,,,,,,,,,,,,,,,,,,,,,,,,1,0.18588978099796805,,,,,,,,,,,,,,part001,B,John,Smith,39,Hombre,México,Tucson,"Universidad (diplomatura, licenciatura)",español,2019_Apr_15_1426,Segmentation,3.0.5,60.140482152515936,
,,,,,,,,,,,,,filleritem3,cambiazo,ginebra,biñena,postigo,verdura,nenedo,sucema,nurese,perdisno,depiaro,gordura,gantarna,remiendo,civillo,nulese,ternura,fogata,bicera,tecillo,cosdura,ventaja,decanro,conducta,sandalia,bimena,palmada,filete,solera,semilla,vislumbre,dulcura,vereda,fivalia,gifema,ruptura,nevera,varime,ciroca,gantina,fastidio,vestolcio,ventisca,ducoste,respuesta,pirijuo,ruñansa,puntilla,poltrona,,,,,,,,,,,,,,,,,,,,,,,,,,,4,0,4,0,0,2,2,3,,,,,,,,,,,,,,,,,,,,,,,,,,,,,,,,1,0.18611082899951725,,,,,,,,,,,,,,part001,B,John,Smith,39,Hombre,México,Tucson,"Universidad (diplomatura, licenciatura)",español,2019_Apr_15_1426,Segmentation,3.0.5,60.140482152515936,
,,,,,,,,,,,,,filleritem9,balbina,jinete,tonvanza,rejilla,teniente,fuztancia,punfullo,tenguga,nidero,fivancia,dominio,bimina,jarabe,cubteha,sufiasa,sepulcro,ciruelo,lultame,zuccancia,caljero,bigote,tercega,giralda,gotera,demonto,jaqueca,velero,tiniebla,sonido,barbecho,vuzarda,dureza,bardana,ruspina,ribera,navaja,manvera,sisluño,lisbombre,cilindro,cencera,vinilo,senrera,torija,lercuente,decibio,fineza,pizarra,,,,,,,,,,,,,,,,,,,,,,,,,,,4,0,4,0,0,3,3,9,,,,,,,,,,,,,,,,,,,,,,,,,,,,,,,,1,0.18347485000049346,,,,,,,,,,,,,,part001,B,John,Smith,39,Hombre,México,Tucson,"Universidad (diplomatura, licenciatura)",español,2019_Apr_15_1426,Segmentation,3.0.5,60.140482152515936,
,,,,,,,,,,,,,filleritem2,lenguaje,soltura,moncura,zumbido,sarmiento,neteno,dinona,sobisco,rartanto,bitero,jilguero,cividra,gustillo,devita,cicauco,centeno,cordero,normaso,lisnombre,viztura,tumulto,sociare,gorjeo,sonrisa,cinsecho,bufete,pestillo,polvillo,tortuga,laxante,fimegra,portazo,mipcura,bitena,tornillo,perchero,dosgiente,pificha,canveta,venganza,cecaja,lanzazo,parsida,sobaco,nemeto,zictencia,mortaja,vestuario,,,,,,,,,,,,,,,,,,,,,,,,,,,4,0,4,0,0,4,4,2,,,,,,,,,,,,,,,,,,,,,,,,,,,,,,,,1,0.17033644299954176,,,,,,,,,,,,,,part001,B,John,Smith,39,Hombre,México,Tucson,"Universidad (diplomatura, licenciatura)",español,2019_Apr_15_1426,Segmentation,3.0.5,60.140482152515936,
,,,,,,,,,,,,,filleritem1,pantalla,sandía,vofida,tejado,pintura,depite,cabsiva,poncilla,ricofo,palcillo,langosta,biluesa,narciso,tomida,tulvano,juntura,certeza,docado,hicuila,senena,zancada,parvida,gorguera,tinaja,tidioma,ventana,porfía,lumbrera,renombre,submundo,balzalla,tartana,divona,lirina,talante,zarzuela,nesedo,tifencio,salfrabla,zapato,denciña,bengala,tidencio,portillo,demida,soponso,punzada,testigo,,,,,,,,,,,,,,,,,,,,,,,,,,,4,0,4,0,0,5,5,1,,,,,,,,,,,,,,,,,,,,,,,,,,,,,,,,1,0.13692861899835407,,,,,,,,,,,,,,part001,B,John,Smith,39,Hombre,México,Tucson,"Universidad (diplomatura, licenciatura)",español,2019_Apr_15_1426,Segmentation,3.0.5,60.140482152515936,
,,,,,,,,,,,,,filleritem5,putada,jactancia,lunino,tortazo,vertiente,sobvondo,cicisa,ferfuera,nundero,tudala,fantoche,piglillo,farola,tecido,tildona,serpiente,mordisco,cabsero,tipallo,civicha,tintero,pospana,fortuna,bolzano,denfiña,bandera,felpudo,mensaje,sortija,lectura,nafiaca,jasmina,venetlo,torsenza,burbuja,barbilla,norita,detnana,zaldizo,pulgada,sinvera,pulsera,sitena,soborno,penvalla,cicaigo,vendaje,vivencia,,,,,,,,,,,,,,,,,,,,,,,,,,,4,0,4,0,0,6,6,5,,,,,,,,,,,,,,,,,,,,,,,,,,,,,,,,1,0.15381861799687613,,,,,,,,,,,,,,part001,B,John,Smith,39,Hombre,México,Tucson,"Universidad (diplomatura, licenciatura)",español,2019_Apr_15_1426,Segmentation,3.0.5,60.140482152515936,
,,,,,,,,,,,,,filleritem6,pileta,gusano,tunsuja,reliquia,tarjeta,tunruja,nacañe,fañeilla,recoltre,delido,laguna,tinneza,rastrillo,mingrago,mufenza,reducto,relente,tutmuja,fernuera,lastadia,piscina,poscallo,cornada,tinglado,fimallo,visillo,suspenso,tendencia,tersura,tufillo,binero,regazo,funclera,midena,viruela,viraje,permaza,tercajo,naverdo,vistazo,simedo,pesquisa,suseña,pozuelo,voltura,soreto,remanso,tapete,,,,,,,,,,,,,,,,,,,,,,,,,,,4,0,4,0,0,7,7,6,,,,,,,,,,,,,,,,,,,,,,,,,,,,,,,,1,0.0934350989991799,,,,,,,,,,,,,,part001,B,John,Smith,39,Hombre,México,Tucson,"Universidad (diplomatura, licenciatura)",español,2019_Apr_15_1426,Segmentation,3.0.5,60.140482152515936,
