Order,Word,Translation,corrAnsEspV,practiceListA,practiceListA0,practiceListA1,practiceListA2,practiceListA3,practiceListA4,practiceListA5,practiceListA6,practiceListA7,conditionA,stimuliListA0,stimuliListA1,stimuliListA2,stimuliListA3,stimuliListA4,stimuliListA5,stimuliListA6,stimuliListA7,stimuliListA8,stimuliListA9,stimuliListA10,stimuliListA11,stimuliListA12,stimuliListA13,stimuliListA14,stimuliListA15,stimuliListA16,stimuliListA17,stimuliListA18,stimuliListA19,stimuliListA20,stimuliListA21,stimuliListA22,stimuliListA23,stimuliListA24,stimuliListA25,stimuliListA26,stimuliListA27,stimuliListA28,stimuliListA29,stimuliListA30,stimuliListA31,stimuliListA32,stimuliListA33,stimuliListA34,stimuliListA35,stimuliListA36,stimuliListA37,stimuliListA38,stimuliListA39,stimuliListA40,stimuliListA41,stimuliListA42,stimuliListA43,stimuliListA44,stimuliListA45,stimuliListA46,stimuliListA47,syllabification,corrSyl,corrAns,keyCVC,keyCV,corrAnsEngV,questionNum,color,sectionEng,questionTextEng,languageEng,sectionEsp,questionTextEsp,languageEsp,lexEspLoop.thisRepN,lexEspLoop.thisTrialN,lexEspLoop.thisN,lexEspLoop.thisIndex,pracTarLoop.thisRepN,pracTarLoop.thisTrialN,pracTarLoop.thisN,pracTarLoop.thisIndex,pracTrialLoop.thisRepN,pracTrialLoop.thisTrialN,pracTrialLoop.thisN,pracTrialLoop.thisIndex,expTarLoop.thisRepN,expTarLoop.thisTrialN,expTarLoop.thisN,expTarLoop.thisIndex,expTrialLoop.thisRepN,expTrialLoop.thisTrialN,expTrialLoop.thisN,expTrialLoop.thisIndex,sylPracLoop.thisRepN,sylPracLoop.thisTrialN,sylPracLoop.thisN,sylPracLoop.thisIndex,syllableLoop.thisRepN,syllableLoop.thisTrialN,syllableLoop.thisN,syllableLoop.thisIndex,lexEngLoop.thisRepN,lexEngLoop.thisTrialN,lexEngLoop.thisN,lexEngLoop.thisIndex,trials_blp_hist.thisRepN,trials_blp_hist.thisTrialN,trials_blp_hist.thisN,trials_blp_hist.thisIndex,trials_blp_use.thisRepN,trials_blp_use.thisTrialN,trials_blp_use.thisN,trials_blp_use.thisIndex,trials_blp_prof.thisRepN,trials_blp_prof.thisTrialN,trials_blp_prof.thisN,trials_blp_prof.thisIndex,trials_blp_att.thisRepN,trials_blp_att.thisTrialN,trials_blp_att.thisN,trials_blp_att.thisIndex,lexEsp_key_resp.keys,lexEsp_key_resp.corr,lexEsp_key_resp.rt,seg_key_resp.keys,seg_key_resp.rt,expSyl_key_resp.keys,expSyl_key_resp.corr,expSyl_key_resp.rt,lexEng_key_resp.keys,lexEng_key_resp.corr,lexEng_key_resp.rt,rating_lang_hist.response,rating_lang_hist.rt,rating_blp_use.response,rating_lang_prof.response,rating_lang_prof.rt,rating_lang_att.response,rating_lang_att.rt,01_Participante (Participant):,02_Sesión (Session):,03_Nombre (First name):,04_Apellido (Last name):,05_Edad (Age):,06_Sexo (Gender):,07_País de nacimiento (Birth country):,08_Lugar de residencia (Place of residence):,09_Nivel más alto de formación académica (Highest level of formal education):,10_Idioma preferido (Preferred language):,date,expName,psychopyVersion,frameRate,
0,pladeno,NW,0,,,,,,,,,,,,,,,,,,,,,,,,,,,,,,,,,,,,,,,,,,,,,,,,,,,,,,,,,,,,,,,,,,,,,,,,,0,0,0,0,,,,,,,,,,,,,,,,,,,,,,,,,,,,,,,,,,,,,,,,,,,,,4,0,5.789239226000063,,,,,,,,,,,,,,,,part100,A,John,Smith,19,Hombre,Estados Unidos,Tucson,Un poco de universidad,inglés,2019_Jun_03_1201,Segmentation,3.0.7,60.05045703599406,
0,delantera,first position,1,,,,,,,,,,,,,,,,,,,,,,,,,,,,,,,,,,,,,,,,,,,,,,,,,,,,,,,,,,,,,,,,,,,,,,,,,0,1,1,1,,,,,,,,,,,,,,,,,,,,,,,,,,,,,,,,,,,,,,,,,,,,,1,1,2.0141835089998494,,,,,,,,,,,,,,,,part100,A,John,Smith,19,Hombre,Estados Unidos,Tucson,Un poco de universidad,inglés,2019_Jun_03_1201,Segmentation,3.0.7,60.05045703599406,
0,garbardina,raincoat,1,,,,,,,,,,,,,,,,,,,,,,,,,,,,,,,,,,,,,,,,,,,,,,,,,,,,,,,,,,,,,,,,,,,,,,,,,0,2,2,2,,,,,,,,,,,,,,,,,,,,,,,,,,,,,,,,,,,,,,,,,,,,,1,1,2.7629132679994655,,,,,,,,,,,,,,,,part100,A,John,Smith,19,Hombre,Estados Unidos,Tucson,Un poco de universidad,inglés,2019_Jun_03_1201,Segmentation,3.0.7,60.05045703599406,
1,terzo,NW,0,,,,,,,,,,,,,,,,,,,,,,,,,,,,,,,,,,,,,,,,,,,,,,,,,,,,,,,,,,,,,,,,,,,,,,,,,0,3,3,3,,,,,,,,,,,,,,,,,,,,,,,,,,,,,,,,,,,,,,,,,,,,,4,0,5.723769476000598,,,,,,,,,,,,,,,,part100,A,John,Smith,19,Hombre,Estados Unidos,Tucson,Un poco de universidad,inglés,2019_Jun_03_1201,Segmentation,3.0.7,60.05045703599406,
2,pellizcar,pinch,1,,,,,,,,,,,,,,,,,,,,,,,,,,,,,,,,,,,,,,,,,,,,,,,,,,,,,,,,,,,,,,,,,,,,,,,,,0,4,4,4,,,,,,,,,,,,,,,,,,,,,,,,,,,,,,,,,,,,,,,,,,,,,4,0,2.414007888000924,,,,,,,,,,,,,,,,part100,A,John,Smith,19,Hombre,Estados Unidos,Tucson,Un poco de universidad,inglés,2019_Jun_03_1201,Segmentation,3.0.7,60.05045703599406,
3,pulmones,lungs,1,,,,,,,,,,,,,,,,,,,,,,,,,,,,,,,,,,,,,,,,,,,,,,,,,,,,,,,,,,,,,,,,,,,,,,,,,0,5,5,5,,,,,,,,,,,,,,,,,,,,,,,,,,,,,,,,,,,,,,,,,,,,,1,1,1.0851924190010322,,,,,,,,,,,,,,,,part100,A,John,Smith,19,Hombre,Estados Unidos,Tucson,Un poco de universidad,inglés,2019_Jun_03_1201,Segmentation,3.0.7,60.05045703599406,
4,batillón,NW,0,,,,,,,,,,,,,,,,,,,,,,,,,,,,,,,,,,,,,,,,,,,,,,,,,,,,,,,,,,,,,,,,,,,,,,,,,0,6,6,6,,,,,,,,,,,,,,,,,,,,,,,,,,,,,,,,,,,,,,,,,,,,,4,0,0.9684513810007047,,,,,,,,,,,,,,,,part100,A,John,Smith,19,Hombre,Estados Unidos,Tucson,Un poco de universidad,inglés,2019_Jun_03_1201,Segmentation,3.0.7,60.05045703599406,
5,zapato,shoe,1,,,,,,,,,,,,,,,,,,,,,,,,,,,,,,,,,,,,,,,,,,,,,,,,,,,,,,,,,,,,,,,,,,,,,,,,,0,7,7,7,,,,,,,,,,,,,,,,,,,,,,,,,,,,,,,,,,,,,,,,,,,,,1,1,0.6683535829997709,,,,,,,,,,,,,,,,part100,A,John,Smith,19,Hombre,Estados Unidos,Tucson,Un poco de universidad,inglés,2019_Jun_03_1201,Segmentation,3.0.7,60.05045703599406,
6,tergiversar,distort,1,,,,,,,,,,,,,,,,,,,,,,,,,,,,,,,,,,,,,,,,,,,,,,,,,,,,,,,,,,,,,,,,,,,,,,,,,0,8,8,8,,,,,,,,,,,,,,,,,,,,,,,,,,,,,,,,,,,,,,,,,,,,,4,0,1.3336469420009962,,,,,,,,,,,,,,,,part100,A,John,Smith,19,Hombre,Estados Unidos,Tucson,Un poco de universidad,inglés,2019_Jun_03_1201,Segmentation,3.0.7,60.05045703599406,
7,pésimo,abysmal,1,,,,,,,,,,,,,,,,,,,,,,,,,,,,,,,,,,,,,,,,,,,,,,,,,,,,,,,,,,,,,,,,,,,,,,,,,0,9,9,9,,,,,,,,,,,,,,,,,,,,,,,,,,,,,,,,,,,,,,,,,,,,,1,1,0.9022630220006249,,,,,,,,,,,,,,,,part100,A,John,Smith,19,Hombre,Estados Unidos,Tucson,Un poco de universidad,inglés,2019_Jun_03_1201,Segmentation,3.0.7,60.05045703599406,
8,cadeña,NW,0,,,,,,,,,,,,,,,,,,,,,,,,,,,,,,,,,,,,,,,,,,,,,,,,,,,,,,,,,,,,,,,,,,,,,,,,,0,10,10,10,,,,,,,,,,,,,,,,,,,,,,,,,,,,,,,,,,,,,,,,,,,,,1,0,1.682852608999383,,,,,,,,,,,,,,,,part100,A,John,Smith,19,Hombre,Estados Unidos,Tucson,Un poco de universidad,inglés,2019_Jun_03_1201,Segmentation,3.0.7,60.05045703599406,
9,hacha,axe,1,,,,,,,,,,,,,,,,,,,,,,,,,,,,,,,,,,,,,,,,,,,,,,,,,,,,,,,,,,,,,,,,,,,,,,,,,0,11,11,11,,,,,,,,,,,,,,,,,,,,,,,,,,,,,,,,,,,,,,,,,,,,,1,1,0.8349981299998035,,,,,,,,,,,,,,,,part100,A,John,Smith,19,Hombre,Estados Unidos,Tucson,Un poco de universidad,inglés,2019_Jun_03_1201,Segmentation,3.0.7,60.05045703599406,
10,antar,NW,0,,,,,,,,,,,,,,,,,,,,,,,,,,,,,,,,,,,,,,,,,,,,,,,,,,,,,,,,,,,,,,,,,,,,,,,,,0,12,12,12,,,,,,,,,,,,,,,,,,,,,,,,,,,,,,,,,,,,,,,,,,,,,1,0,0.6849117709989514,,,,,,,,,,,,,,,,part100,A,John,Smith,19,Hombre,Estados Unidos,Tucson,Un poco de universidad,inglés,2019_Jun_03_1201,Segmentation,3.0.7,60.05045703599406,
11,cenefa,edging,1,,,,,,,,,,,,,,,,,,,,,,,,,,,,,,,,,,,,,,,,,,,,,,,,,,,,,,,,,,,,,,,,,,,,,,,,,0,13,13,13,,,,,,,,,,,,,,,,,,,,,,,,,,,,,,,,,,,,,,,,,,,,,4,0,1.316969527000765,,,,,,,,,,,,,,,,part100,A,John,Smith,19,Hombre,Estados Unidos,Tucson,Un poco de universidad,inglés,2019_Jun_03_1201,Segmentation,3.0.7,60.05045703599406,
12,asesinato,murder,1,,,,,,,,,,,,,,,,,,,,,,,,,,,,,,,,,,,,,,,,,,,,,,,,,,,,,,,,,,,,,,,,,,,,,,,,,0,14,14,14,,,,,,,,,,,,,,,,,,,,,,,,,,,,,,,,,,,,,,,,,,,,,1,1,0.8225402949992713,,,,,,,,,,,,,,,,part100,A,John,Smith,19,Hombre,Estados Unidos,Tucson,Un poco de universidad,inglés,2019_Jun_03_1201,Segmentation,3.0.7,60.05045703599406,
13,helar,freeze,1,,,,,,,,,,,,,,,,,,,,,,,,,,,,,,,,,,,,,,,,,,,,,,,,,,,,,,,,,,,,,,,,,,,,,,,,,0,15,15,15,,,,,,,,,,,,,,,,,,,,,,,,,,,,,,,,,,,,,,,,,,,,,4,0,0.9000596269997914,,,,,,,,,,,,,,,,part100,A,John,Smith,19,Hombre,Estados Unidos,Tucson,Un poco de universidad,inglés,2019_Jun_03_1201,Segmentation,3.0.7,60.05045703599406,
14,yunque,anvil,1,,,,,,,,,,,,,,,,,,,,,,,,,,,,,,,,,,,,,,,,,,,,,,,,,,,,,,,,,,,,,,,,,,,,,,,,,0,16,16,16,,,,,,,,,,,,,,,,,,,,,,,,,,,,,,,,,,,,,,,,,,,,,1,1,0.48567858100068406,,,,,,,,,,,,,,,,part100,A,John,Smith,19,Hombre,Estados Unidos,Tucson,Un poco de universidad,inglés,2019_Jun_03_1201,Segmentation,3.0.7,60.05045703599406,
15,regar,water,1,,,,,,,,,,,,,,,,,,,,,,,,,,,,,,,,,,,,,,,,,,,,,,,,,,,,,,,,,,,,,,,,,,,,,,,,,0,17,17,17,,,,,,,,,,,,,,,,,,,,,,,,,,,,,,,,,,,,,,,,,,,,,4,0,0.5682283629994345,,,,,,,,,,,,,,,,part100,A,John,Smith,19,Hombre,Estados Unidos,Tucson,Un poco de universidad,inglés,2019_Jun_03_1201,Segmentation,3.0.7,60.05045703599406,
16,abracer,NW,0,,,,,,,,,,,,,,,,,,,,,,,,,,,,,,,,,,,,,,,,,,,,,,,,,,,,,,,,,,,,,,,,,,,,,,,,,0,18,18,18,,,,,,,,,,,,,,,,,,,,,,,,,,,,,,,,,,,,,,,,,,,,,1,0,0.684474396000951,,,,,,,,,,,,,,,,part100,A,John,Smith,19,Hombre,Estados Unidos,Tucson,Un poco de universidad,inglés,2019_Jun_03_1201,Segmentation,3.0.7,60.05045703599406,
17,floroso,NW,0,,,,,,,,,,,,,,,,,,,,,,,,,,,,,,,,,,,,,,,,,,,,,,,,,,,,,,,,,,,,,,,,,,,,,,,,,0,19,19,19,,,,,,,,,,,,,,,,,,,,,,,,,,,,,,,,,,,,,,,,,,,,,4,0,0.549789469998359,,,,,,,,,,,,,,,,part100,A,John,Smith,19,Hombre,Estados Unidos,Tucson,Un poco de universidad,inglés,2019_Jun_03_1201,Segmentation,3.0.7,60.05045703599406,
18,arsa,NW,0,,,,,,,,,,,,,,,,,,,,,,,,,,,,,,,,,,,,,,,,,,,,,,,,,,,,,,,,,,,,,,,,,,,,,,,,,0,20,20,20,,,,,,,,,,,,,,,,,,,,,,,,,,,,,,,,,,,,,,,,,,,,,4,0,0.7346578169999702,,,,,,,,,,,,,,,,part100,A,John,Smith,19,Hombre,Estados Unidos,Tucson,Un poco de universidad,inglés,2019_Jun_03_1201,Segmentation,3.0.7,60.05045703599406,
19,brecedad,NW,0,,,,,,,,,,,,,,,,,,,,,,,,,,,,,,,,,,,,,,,,,,,,,,,,,,,,,,,,,,,,,,,,,,,,,,,,,0,21,21,21,,,,,,,,,,,,,,,,,,,,,,,,,,,,,,,,,,,,,,,,,,,,,4,0,0.6671655329992063,,,,,,,,,,,,,,,,part100,A,John,Smith,19,Hombre,Estados Unidos,Tucson,Un poco de universidad,inglés,2019_Jun_03_1201,Segmentation,3.0.7,60.05045703599406,
20,ávido,avid,1,,,,,,,,,,,,,,,,,,,,,,,,,,,,,,,,,,,,,,,,,,,,,,,,,,,,,,,,,,,,,,,,,,,,,,,,,0,22,22,22,,,,,,,,,,,,,,,,,,,,,,,,,,,,,,,,,,,,,,,,,,,,,1,1,0.5522966970002017,,,,,,,,,,,,,,,,part100,A,John,Smith,19,Hombre,Estados Unidos,Tucson,Un poco de universidad,inglés,2019_Jun_03_1201,Segmentation,3.0.7,60.05045703599406,
21,capillo,NW,0,,,,,,,,,,,,,,,,,,,,,,,,,,,,,,,,,,,,,,,,,,,,,,,,,,,,,,,,,,,,,,,,,,,,,,,,,0,23,23,23,,,,,,,,,,,,,,,,,,,,,,,,,,,,,,,,,,,,,,,,,,,,,1,0,0.553205643000183,,,,,,,,,,,,,,,,part100,A,John,Smith,19,Hombre,Estados Unidos,Tucson,Un poco de universidad,inglés,2019_Jun_03_1201,Segmentation,3.0.7,60.05045703599406,
22,lacayo,lackey,1,,,,,,,,,,,,,,,,,,,,,,,,,,,,,,,,,,,,,,,,,,,,,,,,,,,,,,,,,,,,,,,,,,,,,,,,,0,24,24,24,,,,,,,,,,,,,,,,,,,,,,,,,,,,,,,,,,,,,,,,,,,,,4,0,0.8004909829996905,,,,,,,,,,,,,,,,part100,A,John,Smith,19,Hombre,Estados Unidos,Tucson,Un poco de universidad,inglés,2019_Jun_03_1201,Segmentation,3.0.7,60.05045703599406,
23,lampera,NW,0,,,,,,,,,,,,,,,,,,,,,,,,,,,,,,,,,,,,,,,,,,,,,,,,,,,,,,,,,,,,,,,,,,,,,,,,,0,25,25,25,,,,,,,,,,,,,,,,,,,,,,,,,,,,,,,,,,,,,,,,,,,,,1,0,0.6850227680006356,,,,,,,,,,,,,,,,part100,A,John,Smith,19,Hombre,Estados Unidos,Tucson,Un poco de universidad,inglés,2019_Jun_03_1201,Segmentation,3.0.7,60.05045703599406,
24,látigo,whip,1,,,,,,,,,,,,,,,,,,,,,,,,,,,,,,,,,,,,,,,,,,,,,,,,,,,,,,,,,,,,,,,,,,,,,,,,,0,26,26,26,,,,,,,,,,,,,,,,,,,,,,,,,,,,,,,,,,,,,,,,,,,,,4,0,0.6989577140011534,,,,,,,,,,,,,,,,part100,A,John,Smith,19,Hombre,Estados Unidos,Tucson,Un poco de universidad,inglés,2019_Jun_03_1201,Segmentation,3.0.7,60.05045703599406,
25,bisagra,hinge,1,,,,,,,,,,,,,,,,,,,,,,,,,,,,,,,,,,,,,,,,,,,,,,,,,,,,,,,,,,,,,,,,,,,,,,,,,0,27,27,27,,,,,,,,,,,,,,,,,,,,,,,,,,,,,,,,,,,,,,,,,,,,,1,1,0.6512333150003542,,,,,,,,,,,,,,,,part100,A,John,Smith,19,Hombre,Estados Unidos,Tucson,Un poco de universidad,inglés,2019_Jun_03_1201,Segmentation,3.0.7,60.05045703599406,
26,secuestro,kidnapping,1,,,,,,,,,,,,,,,,,,,,,,,,,,,,,,,,,,,,,,,,,,,,,,,,,,,,,,,,,,,,,,,,,,,,,,,,,0,28,28,28,,,,,,,,,,,,,,,,,,,,,,,,,,,,,,,,,,,,,,,,,,,,,4,0,0.7028542419993755,,,,,,,,,,,,,,,,part100,A,John,Smith,19,Hombre,Estados Unidos,Tucson,Un poco de universidad,inglés,2019_Jun_03_1201,Segmentation,3.0.7,60.05045703599406,
27,acutación,NW,0,,,,,,,,,,,,,,,,,,,,,,,,,,,,,,,,,,,,,,,,,,,,,,,,,,,,,,,,,,,,,,,,,,,,,,,,,0,29,29,29,,,,,,,,,,,,,,,,,,,,,,,,,,,,,,,,,,,,,,,,,,,,,1,0,1.116452546999426,,,,,,,,,,,,,,,,part100,A,John,Smith,19,Hombre,Estados Unidos,Tucson,Un poco de universidad,inglés,2019_Jun_03_1201,Segmentation,3.0.7,60.05045703599406,
28,merodear,prowl,1,,,,,,,,,,,,,,,,,,,,,,,,,,,,,,,,,,,,,,,,,,,,,,,,,,,,,,,,,,,,,,,,,,,,,,,,,0,30,30,30,,,,,,,,,,,,,,,,,,,,,,,,,,,,,,,,,,,,,,,,,,,,,4,0,0.9005132879992743,,,,,,,,,,,,,,,,part100,A,John,Smith,19,Hombre,Estados Unidos,Tucson,Un poco de universidad,inglés,2019_Jun_03_1201,Segmentation,3.0.7,60.05045703599406,
29,decar,NW,0,,,,,,,,,,,,,,,,,,,,,,,,,,,,,,,,,,,,,,,,,,,,,,,,,,,,,,,,,,,,,,,,,,,,,,,,,0,31,31,31,,,,,,,,,,,,,,,,,,,,,,,,,,,,,,,,,,,,,,,,,,,,,1,0,0.836430384999403,,,,,,,,,,,,,,,,part100,A,John,Smith,19,Hombre,Estados Unidos,Tucson,Un poco de universidad,inglés,2019_Jun_03_1201,Segmentation,3.0.7,60.05045703599406,
30,alardio,NW,0,,,,,,,,,,,,,,,,,,,,,,,,,,,,,,,,,,,,,,,,,,,,,,,,,,,,,,,,,,,,,,,,,,,,,,,,,0,32,32,32,,,,,,,,,,,,,,,,,,,,,,,,,,,,,,,,,,,,,,,,,,,,,1,0,1.1142691730001388,,,,,,,,,,,,,,,,part100,A,John,Smith,19,Hombre,Estados Unidos,Tucson,Un poco de universidad,inglés,2019_Jun_03_1201,Segmentation,3.0.7,60.05045703599406,
31,pandilla,gang,1,,,,,,,,,,,,,,,,,,,,,,,,,,,,,,,,,,,,,,,,,,,,,,,,,,,,,,,,,,,,,,,,,,,,,,,,,0,33,33,33,,,,,,,,,,,,,,,,,,,,,,,,,,,,,,,,,,,,,,,,,,,,,1,1,0.5994786510000267,,,,,,,,,,,,,,,,part100,A,John,Smith,19,Hombre,Estados Unidos,Tucson,Un poco de universidad,inglés,2019_Jun_03_1201,Segmentation,3.0.7,60.05045703599406,
32,fatacidad,NW,0,,,,,,,,,,,,,,,,,,,,,,,,,,,,,,,,,,,,,,,,,,,,,,,,,,,,,,,,,,,,,,,,,,,,,,,,,0,34,34,34,,,,,,,,,,,,,,,,,,,,,,,,,,,,,,,,,,,,,,,,,,,,,1,0,0.6186279169996851,,,,,,,,,,,,,,,,part100,A,John,Smith,19,Hombre,Estados Unidos,Tucson,Un poco de universidad,inglés,2019_Jun_03_1201,Segmentation,3.0.7,60.05045703599406,
33,pauca,NW,0,,,,,,,,,,,,,,,,,,,,,,,,,,,,,,,,,,,,,,,,,,,,,,,,,,,,,,,,,,,,,,,,,,,,,,,,,0,35,35,35,,,,,,,,,,,,,,,,,,,,,,,,,,,,,,,,,,,,,,,,,,,,,4,0,0.9167468569994526,,,,,,,,,,,,,,,,part100,A,John,Smith,19,Hombre,Estados Unidos,Tucson,Un poco de universidad,inglés,2019_Jun_03_1201,Segmentation,3.0.7,60.05045703599406,
34,aviso,notice,1,,,,,,,,,,,,,,,,,,,,,,,,,,,,,,,,,,,,,,,,,,,,,,,,,,,,,,,,,,,,,,,,,,,,,,,,,0,36,36,36,,,,,,,,,,,,,,,,,,,,,,,,,,,,,,,,,,,,,,,,,,,,,1,1,0.568553773999156,,,,,,,,,,,,,,,,part100,A,John,Smith,19,Hombre,Estados Unidos,Tucson,Un poco de universidad,inglés,2019_Jun_03_1201,Segmentation,3.0.7,60.05045703599406,
35,rompido,NW,0,,,,,,,,,,,,,,,,,,,,,,,,,,,,,,,,,,,,,,,,,,,,,,,,,,,,,,,,,,,,,,,,,,,,,,,,,0,37,37,37,,,,,,,,,,,,,,,,,,,,,,,,,,,,,,,,,,,,,,,,,,,,,1,0,0.8683722050009237,,,,,,,,,,,,,,,,part100,A,John,Smith,19,Hombre,Estados Unidos,Tucson,Un poco de universidad,inglés,2019_Jun_03_1201,Segmentation,3.0.7,60.05045703599406,
36,loro,parrot,1,,,,,,,,,,,,,,,,,,,,,,,,,,,,,,,,,,,,,,,,,,,,,,,,,,,,,,,,,,,,,,,,,,,,,,,,,0,38,38,38,,,,,,,,,,,,,,,,,,,,,,,,,,,,,,,,,,,,,,,,,,,,,4,0,0.7838438969993149,,,,,,,,,,,,,,,,part100,A,John,Smith,19,Hombre,Estados Unidos,Tucson,Un poco de universidad,inglés,2019_Jun_03_1201,Segmentation,3.0.7,60.05045703599406,
37,granuja,rascal,1,,,,,,,,,,,,,,,,,,,,,,,,,,,,,,,,,,,,,,,,,,,,,,,,,,,,,,,,,,,,,,,,,,,,,,,,,0,39,39,39,,,,,,,,,,,,,,,,,,,,,,,,,,,,,,,,,,,,,,,,,,,,,1,1,0.7016311030001816,,,,,,,,,,,,,,,,part100,A,John,Smith,19,Hombre,Estados Unidos,Tucson,Un poco de universidad,inglés,2019_Jun_03_1201,Segmentation,3.0.7,60.05045703599406,
38,estornudar,sneeze,1,,,,,,,,,,,,,,,,,,,,,,,,,,,,,,,,,,,,,,,,,,,,,,,,,,,,,,,,,,,,,,,,,,,,,,,,,0,40,40,40,,,,,,,,,,,,,,,,,,,,,,,,,,,,,,,,,,,,,,,,,,,,,1,1,0.7519673469996633,,,,,,,,,,,,,,,,part100,A,John,Smith,19,Hombre,Estados Unidos,Tucson,Un poco de universidad,inglés,2019_Jun_03_1201,Segmentation,3.0.7,60.05045703599406,
39,torpe,clumsy,1,,,,,,,,,,,,,,,,,,,,,,,,,,,,,,,,,,,,,,,,,,,,,,,,,,,,,,,,,,,,,,,,,,,,,,,,,0,41,41,41,,,,,,,,,,,,,,,,,,,,,,,,,,,,,,,,,,,,,,,,,,,,,4,0,0.46973325299950375,,,,,,,,,,,,,,,,part100,A,John,Smith,19,Hombre,Estados Unidos,Tucson,Un poco de universidad,inglés,2019_Jun_03_1201,Segmentation,3.0.7,60.05045703599406,
40,alfombra,carpet,1,,,,,,,,,,,,,,,,,,,,,,,,,,,,,,,,,,,,,,,,,,,,,,,,,,,,,,,,,,,,,,,,,,,,,,,,,0,42,42,42,,,,,,,,,,,,,,,,,,,,,,,,,,,,,,,,,,,,,,,,,,,,,1,1,0.5340520249992551,,,,,,,,,,,,,,,,part100,A,John,Smith,19,Hombre,Estados Unidos,Tucson,Un poco de universidad,inglés,2019_Jun_03_1201,Segmentation,3.0.7,60.05045703599406,
41,rebuscar,rummage,1,,,,,,,,,,,,,,,,,,,,,,,,,,,,,,,,,,,,,,,,,,,,,,,,,,,,,,,,,,,,,,,,,,,,,,,,,0,43,43,43,,,,,,,,,,,,,,,,,,,,,,,,,,,,,,,,,,,,,,,,,,,,,1,1,0.6836107859999174,,,,,,,,,,,,,,,,part100,A,John,Smith,19,Hombre,Estados Unidos,Tucson,Un poco de universidad,inglés,2019_Jun_03_1201,Segmentation,3.0.7,60.05045703599406,
42,cadallo,NW,0,,,,,,,,,,,,,,,,,,,,,,,,,,,,,,,,,,,,,,,,,,,,,,,,,,,,,,,,,,,,,,,,,,,,,,,,,0,44,44,44,,,,,,,,,,,,,,,,,,,,,,,,,,,,,,,,,,,,,,,,,,,,,1,0,0.999676596999052,,,,,,,,,,,,,,,,part100,A,John,Smith,19,Hombre,Estados Unidos,Tucson,Un poco de universidad,inglés,2019_Jun_03_1201,Segmentation,3.0.7,60.05045703599406,
43,canela,cinnamon,1,,,,,,,,,,,,,,,,,,,,,,,,,,,,,,,,,,,,,,,,,,,,,,,,,,,,,,,,,,,,,,,,,,,,,,,,,0,45,45,45,,,,,,,,,,,,,,,,,,,,,,,,,,,,,,,,,,,,,,,,,,,,,1,1,0.7006619069998123,,,,,,,,,,,,,,,,part100,A,John,Smith,19,Hombre,Estados Unidos,Tucson,Un poco de universidad,inglés,2019_Jun_03_1201,Segmentation,3.0.7,60.05045703599406,
44,cuchara,spoon,1,,,,,,,,,,,,,,,,,,,,,,,,,,,,,,,,,,,,,,,,,,,,,,,,,,,,,,,,,,,,,,,,,,,,,,,,,0,46,46,46,,,,,,,,,,,,,,,,,,,,,,,,,,,,,,,,,,,,,,,,,,,,,1,1,0.7025424509993172,,,,,,,,,,,,,,,,part100,A,John,Smith,19,Hombre,Estados Unidos,Tucson,Un poco de universidad,inglés,2019_Jun_03_1201,Segmentation,3.0.7,60.05045703599406,
45,jilguero,goldfinch,1,,,,,,,,,,,,,,,,,,,,,,,,,,,,,,,,,,,,,,,,,,,,,,,,,,,,,,,,,,,,,,,,,,,,,,,,,0,47,47,47,,,,,,,,,,,,,,,,,,,,,,,,,,,,,,,,,,,,,,,,,,,,,4,0,0.8845886920007615,,,,,,,,,,,,,,,,part100,A,John,Smith,19,Hombre,Estados Unidos,Tucson,Un poco de universidad,inglés,2019_Jun_03_1201,Segmentation,3.0.7,60.05045703599406,
46,martillo,hammer,1,,,,,,,,,,,,,,,,,,,,,,,,,,,,,,,,,,,,,,,,,,,,,,,,,,,,,,,,,,,,,,,,,,,,,,,,,0,48,48,48,,,,,,,,,,,,,,,,,,,,,,,,,,,,,,,,,,,,,,,,,,,,,4,0,1.6799849159997393,,,,,,,,,,,,,,,,part100,A,John,Smith,19,Hombre,Estados Unidos,Tucson,Un poco de universidad,inglés,2019_Jun_03_1201,Segmentation,3.0.7,60.05045703599406,
47,cartinar,NW,0,,,,,,,,,,,,,,,,,,,,,,,,,,,,,,,,,,,,,,,,,,,,,,,,,,,,,,,,,,,,,,,,,,,,,,,,,0,49,49,49,,,,,,,,,,,,,,,,,,,,,,,,,,,,,,,,,,,,,,,,,,,,,1,0,1.9484998730004008,,,,,,,,,,,,,,,,part100,A,John,Smith,19,Hombre,Estados Unidos,Tucson,Un poco de universidad,inglés,2019_Jun_03_1201,Segmentation,3.0.7,60.05045703599406,
48,ladrón,thief,1,,,,,,,,,,,,,,,,,,,,,,,,,,,,,,,,,,,,,,,,,,,,,,,,,,,,,,,,,,,,,,,,,,,,,,,,,0,50,50,50,,,,,,,,,,,,,,,,,,,,,,,,,,,,,,,,,,,,,,,,,,,,,1,1,0.7496826260012313,,,,,,,,,,,,,,,,part100,A,John,Smith,19,Hombre,Estados Unidos,Tucson,Un poco de universidad,inglés,2019_Jun_03_1201,Segmentation,3.0.7,60.05045703599406,
49,ganar,win,1,,,,,,,,,,,,,,,,,,,,,,,,,,,,,,,,,,,,,,,,,,,,,,,,,,,,,,,,,,,,,,,,,,,,,,,,,0,51,51,51,,,,,,,,,,,,,,,,,,,,,,,,,,,,,,,,,,,,,,,,,,,,,1,1,0.6674806049995823,,,,,,,,,,,,,,,,part100,A,John,Smith,19,Hombre,Estados Unidos,Tucson,Un poco de universidad,inglés,2019_Jun_03_1201,Segmentation,3.0.7,60.05045703599406,
50,flamida,NW,0,,,,,,,,,,,,,,,,,,,,,,,,,,,,,,,,,,,,,,,,,,,,,,,,,,,,,,,,,,,,,,,,,,,,,,,,,0,52,52,52,,,,,,,,,,,,,,,,,,,,,,,,,,,,,,,,,,,,,,,,,,,,,4,0,0.7340881330001139,,,,,,,,,,,,,,,,part100,A,John,Smith,19,Hombre,Estados Unidos,Tucson,Un poco de universidad,inglés,2019_Jun_03_1201,Segmentation,3.0.7,60.05045703599406,
51,candado,padlock,1,,,,,,,,,,,,,,,,,,,,,,,,,,,,,,,,,,,,,,,,,,,,,,,,,,,,,,,,,,,,,,,,,,,,,,,,,0,53,53,53,,,,,,,,,,,,,,,,,,,,,,,,,,,,,,,,,,,,,,,,,,,,,4,0,1.2990582439997524,,,,,,,,,,,,,,,,part100,A,John,Smith,19,Hombre,Estados Unidos,Tucson,Un poco de universidad,inglés,2019_Jun_03_1201,Segmentation,3.0.7,60.05045703599406,
52,camisa,shirt,1,,,,,,,,,,,,,,,,,,,,,,,,,,,,,,,,,,,,,,,,,,,,,,,,,,,,,,,,,,,,,,,,,,,,,,,,,0,54,54,54,,,,,,,,,,,,,,,,,,,,,,,,,,,,,,,,,,,,,,,,,,,,,1,1,0.5515711840016593,,,,,,,,,,,,,,,,part100,A,John,Smith,19,Hombre,Estados Unidos,Tucson,Un poco de universidad,inglés,2019_Jun_03_1201,Segmentation,3.0.7,60.05045703599406,
53,vegada,NW,0,,,,,,,,,,,,,,,,,,,,,,,,,,,,,,,,,,,,,,,,,,,,,,,,,,,,,,,,,,,,,,,,,,,,,,,,,0,55,55,55,,,,,,,,,,,,,,,,,,,,,,,,,,,,,,,,,,,,,,,,,,,,,4,0,0.8309867320003832,,,,,,,,,,,,,,,,part100,A,John,Smith,19,Hombre,Estados Unidos,Tucson,Un poco de universidad,inglés,2019_Jun_03_1201,Segmentation,3.0.7,60.05045703599406,
54,fomentar,promote,1,,,,,,,,,,,,,,,,,,,,,,,,,,,,,,,,,,,,,,,,,,,,,,,,,,,,,,,,,,,,,,,,,,,,,,,,,0,56,56,56,,,,,,,,,,,,,,,,,,,,,,,,,,,,,,,,,,,,,,,,,,,,,1,1,0.8843995090010139,,,,,,,,,,,,,,,,part100,A,John,Smith,19,Hombre,Estados Unidos,Tucson,Un poco de universidad,inglés,2019_Jun_03_1201,Segmentation,3.0.7,60.05045703599406,
55,nevar,snow,1,,,,,,,,,,,,,,,,,,,,,,,,,,,,,,,,,,,,,,,,,,,,,,,,,,,,,,,,,,,,,,,,,,,,,,,,,0,57,57,57,,,,,,,,,,,,,,,,,,,,,,,,,,,,,,,,,,,,,,,,,,,,,1,1,0.7185008039996319,,,,,,,,,,,,,,,,part100,A,John,Smith,19,Hombre,Estados Unidos,Tucson,Un poco de universidad,inglés,2019_Jun_03_1201,Segmentation,3.0.7,60.05045703599406,
56,musgo,moss,1,,,,,,,,,,,,,,,,,,,,,,,,,,,,,,,,,,,,,,,,,,,,,,,,,,,,,,,,,,,,,,,,,,,,,,,,,0,58,58,58,,,,,,,,,,,,,,,,,,,,,,,,,,,,,,,,,,,,,,,,,,,,,1,1,0.7680290429998422,,,,,,,,,,,,,,,,part100,A,John,Smith,19,Hombre,Estados Unidos,Tucson,Un poco de universidad,inglés,2019_Jun_03_1201,Segmentation,3.0.7,60.05045703599406,
57,tacaño,stingy,1,,,,,,,,,,,,,,,,,,,,,,,,,,,,,,,,,,,,,,,,,,,,,,,,,,,,,,,,,,,,,,,,,,,,,,,,,0,59,59,59,,,,,,,,,,,,,,,,,,,,,,,,,,,,,,,,,,,,,,,,,,,,,1,1,0.8182418150008743,,,,,,,,,,,,,,,,part100,A,John,Smith,19,Hombre,Estados Unidos,Tucson,Un poco de universidad,inglés,2019_Jun_03_1201,Segmentation,3.0.7,60.05045703599406,
58,plaudir,NW,0,,,,,,,,,,,,,,,,,,,,,,,,,,,,,,,,,,,,,,,,,,,,,,,,,,,,,,,,,,,,,,,,,,,,,,,,,0,60,60,60,,,,,,,,,,,,,,,,,,,,,,,,,,,,,,,,,,,,,,,,,,,,,4,0,0.7508574229996157,,,,,,,,,,,,,,,,part100,A,John,Smith,19,Hombre,Estados Unidos,Tucson,Un poco de universidad,inglés,2019_Jun_03_1201,Segmentation,3.0.7,60.05045703599406,
59,besar,kiss,1,,,,,,,,,,,,,,,,,,,,,,,,,,,,,,,,,,,,,,,,,,,,,,,,,,,,,,,,,,,,,,,,,,,,,,,,,0,61,61,61,,,,,,,,,,,,,,,,,,,,,,,,,,,,,,,,,,,,,,,,,,,,,1,1,0.5679701359986211,,,,,,,,,,,,,,,,part100,A,John,Smith,19,Hombre,Estados Unidos,Tucson,Un poco de universidad,inglés,2019_Jun_03_1201,Segmentation,3.0.7,60.05045703599406,
60,matar,kill,1,,,,,,,,,,,,,,,,,,,,,,,,,,,,,,,,,,,,,,,,,,,,,,,,,,,,,,,,,,,,,,,,,,,,,,,,,0,62,62,62,,,,,,,,,,,,,,,,,,,,,,,,,,,,,,,,,,,,,,,,,,,,,1,1,0.6183196250003675,,,,,,,,,,,,,,,,part100,A,John,Smith,19,Hombre,Estados Unidos,Tucson,Un poco de universidad,inglés,2019_Jun_03_1201,Segmentation,3.0.7,60.05045703599406,
61,seda,silk,1,,,,,,,,,,,,,,,,,,,,,,,,,,,,,,,,,,,,,,,,,,,,,,,,,,,,,,,,,,,,,,,,,,,,,,,,,0,63,63,63,,,,,,,,,,,,,,,,,,,,,,,,,,,,,,,,,,,,,,,,,,,,,1,1,1.1165979340003105,,,,,,,,,,,,,,,,part100,A,John,Smith,19,Hombre,Estados Unidos,Tucson,Un poco de universidad,inglés,2019_Jun_03_1201,Segmentation,3.0.7,60.05045703599406,
62,flaco,skinny,1,,,,,,,,,,,,,,,,,,,,,,,,,,,,,,,,,,,,,,,,,,,,,,,,,,,,,,,,,,,,,,,,,,,,,,,,,0,64,64,64,,,,,,,,,,,,,,,,,,,,,,,,,,,,,,,,,,,,,,,,,,,,,1,1,0.8009741550013132,,,,,,,,,,,,,,,,part100,A,John,Smith,19,Hombre,Estados Unidos,Tucson,Un poco de universidad,inglés,2019_Jun_03_1201,Segmentation,3.0.7,60.05045703599406,
63,esposante,NW,0,,,,,,,,,,,,,,,,,,,,,,,,,,,,,,,,,,,,,,,,,,,,,,,,,,,,,,,,,,,,,,,,,,,,,,,,,0,65,65,65,,,,,,,,,,,,,,,,,,,,,,,,,,,,,,,,,,,,,,,,,,,,,1,0,1.2664203619988257,,,,,,,,,,,,,,,,part100,A,John,Smith,19,Hombre,Estados Unidos,Tucson,Un poco de universidad,inglés,2019_Jun_03_1201,Segmentation,3.0.7,60.05045703599406,
64,orgulloso,proud,1,,,,,,,,,,,,,,,,,,,,,,,,,,,,,,,,,,,,,,,,,,,,,,,,,,,,,,,,,,,,,,,,,,,,,,,,,0,66,66,66,,,,,,,,,,,,,,,,,,,,,,,,,,,,,,,,,,,,,,,,,,,,,1,1,0.7004511019986239,,,,,,,,,,,,,,,,part100,A,John,Smith,19,Hombre,Estados Unidos,Tucson,Un poco de universidad,inglés,2019_Jun_03_1201,Segmentation,3.0.7,60.05045703599406,
65,bizcocho,cake,1,,,,,,,,,,,,,,,,,,,,,,,,,,,,,,,,,,,,,,,,,,,,,,,,,,,,,,,,,,,,,,,,,,,,,,,,,0,67,67,67,,,,,,,,,,,,,,,,,,,,,,,,,,,,,,,,,,,,,,,,,,,,,1,1,0.9179788389992609,,,,,,,,,,,,,,,,part100,A,John,Smith,19,Hombre,Estados Unidos,Tucson,Un poco de universidad,inglés,2019_Jun_03_1201,Segmentation,3.0.7,60.05045703599406,
66,hacido,NW,0,,,,,,,,,,,,,,,,,,,,,,,,,,,,,,,,,,,,,,,,,,,,,,,,,,,,,,,,,,,,,,,,,,,,,,,,,0,68,68,68,,,,,,,,,,,,,,,,,,,,,,,,,,,,,,,,,,,,,,,,,,,,,4,0,1.8984410670000216,,,,,,,,,,,,,,,,part100,A,John,Smith,19,Hombre,Estados Unidos,Tucson,Un poco de universidad,inglés,2019_Jun_03_1201,Segmentation,3.0.7,60.05045703599406,
67,cabello,hair,1,,,,,,,,,,,,,,,,,,,,,,,,,,,,,,,,,,,,,,,,,,,,,,,,,,,,,,,,,,,,,,,,,,,,,,,,,0,69,69,69,,,,,,,,,,,,,,,,,,,,,,,,,,,,,,,,,,,,,,,,,,,,,1,1,1.6327178569990792,,,,,,,,,,,,,,,,part100,A,John,Smith,19,Hombre,Estados Unidos,Tucson,Un poco de universidad,inglés,2019_Jun_03_1201,Segmentation,3.0.7,60.05045703599406,
68,alegre,cheerful,1,,,,,,,,,,,,,,,,,,,,,,,,,,,,,,,,,,,,,,,,,,,,,,,,,,,,,,,,,,,,,,,,,,,,,,,,,0,70,70,70,,,,,,,,,,,,,,,,,,,,,,,,,,,,,,,,,,,,,,,,,,,,,1,1,0.5856211629998143,,,,,,,,,,,,,,,,part100,A,John,Smith,19,Hombre,Estados Unidos,Tucson,Un poco de universidad,inglés,2019_Jun_03_1201,Segmentation,3.0.7,60.05045703599406,
69,engatusar,cajole,1,,,,,,,,,,,,,,,,,,,,,,,,,,,,,,,,,,,,,,,,,,,,,,,,,,,,,,,,,,,,,,,,,,,,,,,,,0,71,71,71,,,,,,,,,,,,,,,,,,,,,,,,,,,,,,,,,,,,,,,,,,,,,4,0,0.8508857759989041,,,,,,,,,,,,,,,,part100,A,John,Smith,19,Hombre,Estados Unidos,Tucson,Un poco de universidad,inglés,2019_Jun_03_1201,Segmentation,3.0.7,60.05045703599406,
70,temblo,NW,0,,,,,,,,,,,,,,,,,,,,,,,,,,,,,,,,,,,,,,,,,,,,,,,,,,,,,,,,,,,,,,,,,,,,,,,,,0,72,72,72,,,,,,,,,,,,,,,,,,,,,,,,,,,,,,,,,,,,,,,,,,,,,1,0,0.7141402789984568,,,,,,,,,,,,,,,,part100,A,John,Smith,19,Hombre,Estados Unidos,Tucson,Un poco de universidad,inglés,2019_Jun_03_1201,Segmentation,3.0.7,60.05045703599406,
71,polvoriento,dusty,1,,,,,,,,,,,,,,,,,,,,,,,,,,,,,,,,,,,,,,,,,,,,,,,,,,,,,,,,,,,,,,,,,,,,,,,,,0,73,73,73,,,,,,,,,,,,,,,,,,,,,,,,,,,,,,,,,,,,,,,,,,,,,4,0,1.7980650150002475,,,,,,,,,,,,,,,,part100,A,John,Smith,19,Hombre,Estados Unidos,Tucson,Un poco de universidad,inglés,2019_Jun_03_1201,Segmentation,3.0.7,60.05045703599406,
72,pemición,NW,0,,,,,,,,,,,,,,,,,,,,,,,,,,,,,,,,,,,,,,,,,,,,,,,,,,,,,,,,,,,,,,,,,,,,,,,,,0,74,74,74,,,,,,,,,,,,,,,,,,,,,,,,,,,,,,,,,,,,,,,,,,,,,4,0,1.4187646230002429,,,,,,,,,,,,,,,,part100,A,John,Smith,19,Hombre,Estados Unidos,Tucson,Un poco de universidad,inglés,2019_Jun_03_1201,Segmentation,3.0.7,60.05045703599406,
73,hervidor,kettle,1,,,,,,,,,,,,,,,,,,,,,,,,,,,,,,,,,,,,,,,,,,,,,,,,,,,,,,,,,,,,,,,,,,,,,,,,,0,75,75,75,,,,,,,,,,,,,,,,,,,,,,,,,,,,,,,,,,,,,,,,,,,,,1,1,1.3336478140008694,,,,,,,,,,,,,,,,part100,A,John,Smith,19,Hombre,Estados Unidos,Tucson,Un poco de universidad,inglés,2019_Jun_03_1201,Segmentation,3.0.7,60.05045703599406,
74,cintro,NW,0,,,,,,,,,,,,,,,,,,,,,,,,,,,,,,,,,,,,,,,,,,,,,,,,,,,,,,,,,,,,,,,,,,,,,,,,,0,76,76,76,,,,,,,,,,,,,,,,,,,,,,,,,,,,,,,,,,,,,,,,,,,,,1,0,0.666539718000422,,,,,,,,,,,,,,,,part100,A,John,Smith,19,Hombre,Estados Unidos,Tucson,Un poco de universidad,inglés,2019_Jun_03_1201,Segmentation,3.0.7,60.05045703599406,
75,yacer,lie,1,,,,,,,,,,,,,,,,,,,,,,,,,,,,,,,,,,,,,,,,,,,,,,,,,,,,,,,,,,,,,,,,,,,,,,,,,0,77,77,77,,,,,,,,,,,,,,,,,,,,,,,,,,,,,,,,,,,,,,,,,,,,,4,0,0.8660095420000289,,,,,,,,,,,,,,,,part100,A,John,Smith,19,Hombre,Estados Unidos,Tucson,Un poco de universidad,inglés,2019_Jun_03_1201,Segmentation,3.0.7,60.05045703599406,
76,atar,tie,1,,,,,,,,,,,,,,,,,,,,,,,,,,,,,,,,,,,,,,,,,,,,,,,,,,,,,,,,,,,,,,,,,,,,,,,,,0,78,78,78,,,,,,,,,,,,,,,,,,,,,,,,,,,,,,,,,,,,,,,,,,,,,1,1,0.9841045789999043,,,,,,,,,,,,,,,,part100,A,John,Smith,19,Hombre,Estados Unidos,Tucson,Un poco de universidad,inglés,2019_Jun_03_1201,Segmentation,3.0.7,60.05045703599406,
77,tiburón,shark,1,,,,,,,,,,,,,,,,,,,,,,,,,,,,,,,,,,,,,,,,,,,,,,,,,,,,,,,,,,,,,,,,,,,,,,,,,0,79,79,79,,,,,,,,,,,,,,,,,,,,,,,,,,,,,,,,,,,,,,,,,,,,,1,1,0.7342548859996896,,,,,,,,,,,,,,,,part100,A,John,Smith,19,Hombre,Estados Unidos,Tucson,Un poco de universidad,inglés,2019_Jun_03_1201,Segmentation,3.0.7,60.05045703599406,
78,frondoso,leafy,1,,,,,,,,,,,,,,,,,,,,,,,,,,,,,,,,,,,,,,,,,,,,,,,,,,,,,,,,,,,,,,,,,,,,,,,,,0,80,80,80,,,,,,,,,,,,,,,,,,,,,,,,,,,,,,,,,,,,,,,,,,,,,4,0,1.1485284899990802,,,,,,,,,,,,,,,,part100,A,John,Smith,19,Hombre,Estados Unidos,Tucson,Un poco de universidad,inglés,2019_Jun_03_1201,Segmentation,3.0.7,60.05045703599406,
79,tropaje,NW,0,,,,,,,,,,,,,,,,,,,,,,,,,,,,,,,,,,,,,,,,,,,,,,,,,,,,,,,,,,,,,,,,,,,,,,,,,0,81,81,81,,,,,,,,,,,,,,,,,,,,,,,,,,,,,,,,,,,,,,,,,,,,,1,0,0.8670432270009769,,,,,,,,,,,,,,,,part100,A,John,Smith,19,Hombre,Estados Unidos,Tucson,Un poco de universidad,inglés,2019_Jun_03_1201,Segmentation,3.0.7,60.05045703599406,
80,hormiga,ant,1,,,,,,,,,,,,,,,,,,,,,,,,,,,,,,,,,,,,,,,,,,,,,,,,,,,,,,,,,,,,,,,,,,,,,,,,,0,82,82,82,,,,,,,,,,,,,,,,,,,,,,,,,,,,,,,,,,,,,,,,,,,,,1,1,1.018654167999557,,,,,,,,,,,,,,,,part100,A,John,Smith,19,Hombre,Estados Unidos,Tucson,Un poco de universidad,inglés,2019_Jun_03_1201,Segmentation,3.0.7,60.05045703599406,
81,pozo,well,1,,,,,,,,,,,,,,,,,,,,,,,,,,,,,,,,,,,,,,,,,,,,,,,,,,,,,,,,,,,,,,,,,,,,,,,,,0,83,83,83,,,,,,,,,,,,,,,,,,,,,,,,,,,,,,,,,,,,,,,,,,,,,1,1,0.6843210629995156,,,,,,,,,,,,,,,,part100,A,John,Smith,19,Hombre,Estados Unidos,Tucson,Un poco de universidad,inglés,2019_Jun_03_1201,Segmentation,3.0.7,60.05045703599406,
82,empirador,NW,0,,,,,,,,,,,,,,,,,,,,,,,,,,,,,,,,,,,,,,,,,,,,,,,,,,,,,,,,,,,,,,,,,,,,,,,,,0,84,84,84,,,,,,,,,,,,,,,,,,,,,,,,,,,,,,,,,,,,,,,,,,,,,1,0,1.3833716669996647,,,,,,,,,,,,,,,,part100,A,John,Smith,19,Hombre,Estados Unidos,Tucson,Un poco de universidad,inglés,2019_Jun_03_1201,Segmentation,3.0.7,60.05045703599406,
83,guante,glove,1,,,,,,,,,,,,,,,,,,,,,,,,,,,,,,,,,,,,,,,,,,,,,,,,,,,,,,,,,,,,,,,,,,,,,,,,,0,85,85,85,,,,,,,,,,,,,,,,,,,,,,,,,,,,,,,,,,,,,,,,,,,,,1,1,0.9324091489997954,,,,,,,,,,,,,,,,part100,A,John,Smith,19,Hombre,Estados Unidos,Tucson,Un poco de universidad,inglés,2019_Jun_03_1201,Segmentation,3.0.7,60.05045703599406,
84,escuto,NW,0,,,,,,,,,,,,,,,,,,,,,,,,,,,,,,,,,,,,,,,,,,,,,,,,,,,,,,,,,,,,,,,,,,,,,,,,,0,86,86,86,,,,,,,,,,,,,,,,,,,,,,,,,,,,,,,,,,,,,,,,,,,,,4,0,0.7171917680007027,,,,,,,,,,,,,,,,part100,A,John,Smith,19,Hombre,Estados Unidos,Tucson,Un poco de universidad,inglés,2019_Jun_03_1201,Segmentation,3.0.7,60.05045703599406,
85,laud,lute,1,,,,,,,,,,,,,,,,,,,,,,,,,,,,,,,,,,,,,,,,,,,,,,,,,,,,,,,,,,,,,,,,,,,,,,,,,0,87,87,87,,,,,,,,,,,,,,,,,,,,,,,,,,,,,,,,,,,,,,,,,,,,,4,0,0.5848989249989245,,,,,,,,,,,,,,,,part100,A,John,Smith,19,Hombre,Estados Unidos,Tucson,Un poco de universidad,inglés,2019_Jun_03_1201,Segmentation,3.0.7,60.05045703599406,
86,barato,cheap,1,,,,,,,,,,,,,,,,,,,,,,,,,,,,,,,,,,,,,,,,,,,,,,,,,,,,,,,,,,,,,,,,,,,,,,,,,0,88,88,88,,,,,,,,,,,,,,,,,,,,,,,,,,,,,,,,,,,,,,,,,,,,,1,1,0.8023174149984698,,,,,,,,,,,,,,,,part100,A,John,Smith,19,Hombre,Estados Unidos,Tucson,Un poco de universidad,inglés,2019_Jun_03_1201,Segmentation,3.0.7,60.05045703599406,
87,grodo,NW,0,,,,,,,,,,,,,,,,,,,,,,,,,,,,,,,,,,,,,,,,,,,,,,,,,,,,,,,,,,,,,,,,,,,,,,,,,0,89,89,89,,,,,,,,,,,,,,,,,,,,,,,,,,,,,,,,,,,,,,,,,,,,,4,0,1.0328068300004816,,,,,,,,,,,,,,,,part100,A,John,Smith,19,Hombre,Estados Unidos,Tucson,Un poco de universidad,inglés,2019_Jun_03_1201,Segmentation,3.0.7,60.05045703599406,
88,acantilado,cliff,1,,,,,,,,,,,,,,,,,,,,,,,,,,,,,,,,,,,,,,,,,,,,,,,,,,,,,,,,,,,,,,,,,,,,,,,,,0,90,90,90,,,,,,,,,,,,,,,,,,,,,,,,,,,,,,,,,,,,,,,,,,,,,4,0,1.3138921480003773,,,,,,,,,,,,,,,,part100,A,John,Smith,19,Hombre,Estados Unidos,Tucson,Un poco de universidad,inglés,2019_Jun_03_1201,Segmentation,3.0.7,60.05045703599406,
89,prisa,hurry,1,,,,,,,,,,,,,,,,,,,,,,,,,,,,,,,,,,,,,,,,,,,,,,,,,,,,,,,,,,,,,,,,,,,,,,,,,0,91,91,91,,,,,,,,,,,,,,,,,,,,,,,,,,,,,,,,,,,,,,,,,,,,,1,1,0.5180935169992154,,,,,,,,,,,,,,,,part100,A,John,Smith,19,Hombre,Estados Unidos,Tucson,Un poco de universidad,inglés,2019_Jun_03_1201,Segmentation,3.0.7,60.05045703599406,
90,clavel,carnation,1,,,,,,,,,,,,,,,,,,,,,,,,,,,,,,,,,,,,,,,,,,,,,,,,,,,,,,,,,,,,,,,,,,,,,,,,,0,92,92,92,,,,,,,,,,,,,,,,,,,,,,,,,,,,,,,,,,,,,,,,,,,,,1,1,0.6014313099985884,,,,,,,,,,,,,,,,part100,A,John,Smith,19,Hombre,Estados Unidos,Tucson,Un poco de universidad,inglés,2019_Jun_03_1201,Segmentation,3.0.7,60.05045703599406,
,,,,filleritem2,confianza,rivera,farime,tarsallo,sarcasmo,bascana,purjida,tungsteno,,,,,,,,,,,,,,,,,,,,,,,,,,,,,,,,,,,,,,,,,,,,,,,,,,,,,,,,,,,,,,,,,,,,0,0,0,0,0,0,0,2,,,,,,,,,,,,,,,,,,,,,,,,,,,,,,,,,,,,,,,,,,,,,,,,,,,,,,,part100,A,John,Smith,19,Hombre,Estados Unidos,Tucson,Un poco de universidad,inglés,2019_Jun_03_1201,Segmentation,3.0.7,60.05045703599406,
,,,,carrierItem,silbido,cosigna,sildedo,venuro,venado,delbides,coserna,deltoides,,,,,,,,,,,,,,,,,,,,,,,,,,,,,,,,,,,,,,,,,,,,,,,,,,,,,,,,,,,,,,,,,,,,0,0,0,0,0,1,1,0,,,,,,,,,,,,,,,,,,,,,,,,,,,,,,,,,,,,,,,,,,,,,,,,,,,,,,,part100,A,John,Smith,19,Hombre,Estados Unidos,Tucson,Un poco de universidad,inglés,2019_Jun_03_1201,Segmentation,3.0.7,60.05045703599406,
,,,,filleritem1,bacteria,farsante,nencida,parvaza,campaña,gimega,navura,burrada,,,,,,,,,,,,,,,,,,,,,,,,,,,,,,,,,,,,,,,,,,,,,,,,,,,,,,,,,,,,,,,,,,,,0,0,0,0,0,2,2,1,,,,,,,,,,,,,,,,,,,,,,,,,,,,,,,,,,,,,,,,,,,,,,,,,,,,,,,part100,A,John,Smith,19,Hombre,Estados Unidos,Tucson,Un poco de universidad,inglés,2019_Jun_03_1201,Segmentation,3.0.7,60.05045703599406,
,,,,filleritem7,noviazgo,ternera,tenvila,jagito,pocilga,vinsosta,fensuace,batuta,,,,,,,,,,,,,,,,,,,,,,,,,,,,,,,,,,,,,,,,,,,,,,,,,,,,,,,,,,,,,,,,,,,,0,0,0,0,0,3,3,7,,,,,,,,,,,,,,,,,,,,,,,,,,,,,,,,,,,,,,,,,,,,,,,,,,,,,,,part100,A,John,Smith,19,Hombre,Estados Unidos,Tucson,Un poco de universidad,inglés,2019_Jun_03_1201,Segmentation,3.0.7,60.05045703599406,
,,,,filleritem9,recodo,percance,rofiolo,tosaba,cornisa,ricobo,binima,sufragio,,,,,,,,,,,,,,,,,,,,,,,,,,,,,,,,,,,,,,,,,,,,,,,,,,,,,,,,,,,,,,,,,,,,0,0,0,0,0,4,4,9,,,,,,,,,,,,,,,,,,,,,,,,,,,,,,,,,,,,,,,,,,,,,,,,,,,,,,,part100,A,John,Smith,19,Hombre,Estados Unidos,Tucson,Un poco de universidad,inglés,2019_Jun_03_1201,Segmentation,3.0.7,60.05045703599406,
,,,,filleritem6,reguero,regato,tocida,simona,cizalla,vantema,dezida,ramaje,,,,,,,,,,,,,,,,,,,,,,,,,,,,,,,,,,,,,,,,,,,,,,,,,,,,,,,,,,,,,,,,,,,,0,0,0,0,0,5,5,6,,,,,,,,,,,,,,,,,,,,,,,,,,,,,,,,,,,,,,,,,,,,,,,,,,,,,,,part100,A,John,Smith,19,Hombre,Estados Unidos,Tucson,Un poco de universidad,inglés,2019_Jun_03_1201,Segmentation,3.0.7,60.05045703599406,
,,,,filleritem8,donaire,pureza,devillo,foscillo,cigoto,nocena,galgango,vaquilla,,,,,,,,,,,,,,,,,,,,,,,,,,,,,,,,,,,,,,,,,,,,,,,,,,,,,,,,,,,,,,,,,,,,0,0,0,0,0,6,6,8,,,,,,,,,,,,,,,,,,,,,,,,,,,,,,,,,,,,,,,,,,,,,,,,,,,,,,,part100,A,John,Smith,19,Hombre,Estados Unidos,Tucson,Un poco de universidad,inglés,2019_Jun_03_1201,Segmentation,3.0.7,60.05045703599406,
,,,,filleritem3,congreso,vergüenza,deciro,sutnido,gozada,gaferdo,vavipo,varilla,,,,,,,,,,,,,,,,,,,,,,,,,,,,,,,,,,,,,,,,,,,,,,,,,,,,,,,,,,,,,,,,,,,,0,0,0,0,0,7,7,3,,,,,,,,,,,,,,,,,,,,,,,,,,,,,,,,,,,,,,,,,,,,,,,,,,,,,,,part100,A,John,Smith,19,Hombre,Estados Unidos,Tucson,Un poco de universidad,inglés,2019_Jun_03_1201,Segmentation,3.0.7,60.05045703599406,
,,,,filleritem4,poniente,largueza,mordiso,cortupto,sordera,rorencio,dabtura,ropero,,,,,,,,,,,,,,,,,,,,,,,,,,,,,,,,,,,,,,,,,,,,,,,,,,,,,,,,,,,,,,,,,,,,0,0,0,0,0,8,8,4,,,,,,,,,,,,,,,,,,,,,,,,,,,,,,,,,,,,,,,,,,,,,,,,,,,,,,,part100,A,John,Smith,19,Hombre,Estados Unidos,Tucson,Un poco de universidad,inglés,2019_Jun_03_1201,Segmentation,3.0.7,60.05045703599406,
,,,,filleritem5,concepto,rabillo,vangurdo,tolina,rasguño,tusvuja,tencrido,forraje,,,,,,,,,,,,,,,,,,,,,,,,,,,,,,,,,,,,,,,,,,,,,,,,,,,,,,,,,,,,,,,,,,,,0,0,0,0,0,9,9,5,,,,,,,,,,,,,,,,,,,,,,,,,,,,,,,,,,,,,,,,,,,,,,,,,,,,,,,part100,A,John,Smith,19,Hombre,Estados Unidos,Tucson,Un poco de universidad,inglés,2019_Jun_03_1201,Segmentation,3.0.7,60.05045703599406,
,,,,targetSyl,sil,cos,si,ven,ve,del,co,de,,,,,,,,,,,,,,,,,,,,,,,,,,,,,,,,,,,,,,,,,,,,,,,,,,,,,,,,,,,,,,,,,,,,0,0,0,0,,,,,,,,,,,,,,,,,,,,,,,,,,,,,,,,,,,,,,,,,,,,,,,,,,,,,,,,,,,part100,A,John,Smith,19,Hombre,Estados Unidos,Tucson,Un poco de universidad,inglés,2019_Jun_03_1201,Segmentation,3.0.7,60.05045703599406,
,,,,carrierItem,silbido,cosigna,sildedo,venuro,venado,delbides,coserna,deltoides,,,,,,,,,,,,,,,,,,,,,,,,,,,,,,,,,,,,,,,,,,,,,,,,,,,,,,,,,,,,,,,,,,,,1,0,1,0,0,0,0,0,,,,,,,,,,,,,,,,,,,,,,,,,,,,,,,,,,,,,,,,,,,,,,,,,,,,,,,part100,A,John,Smith,19,Hombre,Estados Unidos,Tucson,Un poco de universidad,inglés,2019_Jun_03_1201,Segmentation,3.0.7,60.05045703599406,
,,,,filleritem5,concepto,rabillo,vangurdo,tolina,rasguño,tusvuja,tencrido,forraje,,,,,,,,,,,,,,,,,,,,,,,,,,,,,,,,,,,,,,,,,,,,,,,,,,,,,,,,,,,,,,,,,,,,1,0,1,0,0,1,1,5,,,,,,,,,,,,,,,,,,,,,,,,,,,,,,,,,,,,,,,,,,,,,,,,,,,,,,,part100,A,John,Smith,19,Hombre,Estados Unidos,Tucson,Un poco de universidad,inglés,2019_Jun_03_1201,Segmentation,3.0.7,60.05045703599406,
,,,,filleritem8,donaire,pureza,devillo,foscillo,cigoto,nocena,galgango,vaquilla,,,,,,,,,,,,,,,,,,,,,,,,,,,,,,,,,,,,,,,,,,,,,,,,,,,,,,,,,,,,,,,,,,,,1,0,1,0,0,2,2,8,,,,,,,,,,,,,,,,,,,,,,,,,,,,,,,,,,,,,,,,,,,,,,,,,,,,,,,part100,A,John,Smith,19,Hombre,Estados Unidos,Tucson,Un poco de universidad,inglés,2019_Jun_03_1201,Segmentation,3.0.7,60.05045703599406,
,,,,filleritem6,reguero,regato,tocida,simona,cizalla,vantema,dezida,ramaje,,,,,,,,,,,,,,,,,,,,,,,,,,,,,,,,,,,,,,,,,,,,,,,,,,,,,,,,,,,,,,,,,,,,1,0,1,0,0,3,3,6,,,,,,,,,,,,,,,,,,,,,,,,,,,,,,,,,,,,,,,,,,,,,,,,,,,,,,,part100,A,John,Smith,19,Hombre,Estados Unidos,Tucson,Un poco de universidad,inglés,2019_Jun_03_1201,Segmentation,3.0.7,60.05045703599406,
,,,,filleritem9,recodo,percance,rofiolo,tosaba,cornisa,ricobo,binima,sufragio,,,,,,,,,,,,,,,,,,,,,,,,,,,,,,,,,,,,,,,,,,,,,,,,,,,,,,,,,,,,,,,,,,,,1,0,1,0,0,4,4,9,,,,,,,,,,,,,,,,,,,,,,,,,,,,,,,,,,,,,,,,,,,,,,,,,,,,,,,part100,A,John,Smith,19,Hombre,Estados Unidos,Tucson,Un poco de universidad,inglés,2019_Jun_03_1201,Segmentation,3.0.7,60.05045703599406,
,,,,filleritem2,confianza,rivera,farime,tarsallo,sarcasmo,bascana,purjida,tungsteno,,,,,,,,,,,,,,,,,,,,,,,,,,,,,,,,,,,,,,,,,,,,,,,,,,,,,,,,,,,,,,,,,,,,1,0,1,0,0,5,5,2,,,,,,,,,,,,,,,,,,,,,,,,,,,,,,,,,,,,,,,,,,,,,,,,,,,,,,,part100,A,John,Smith,19,Hombre,Estados Unidos,Tucson,Un poco de universidad,inglés,2019_Jun_03_1201,Segmentation,3.0.7,60.05045703599406,
,,,,filleritem3,congreso,vergüenza,deciro,sutnido,gozada,gaferdo,vavipo,varilla,,,,,,,,,,,,,,,,,,,,,,,,,,,,,,,,,,,,,,,,,,,,,,,,,,,,,,,,,,,,,,,,,,,,1,0,1,0,0,6,6,3,,,,,,,,,,,,,,,,,,,,,,,,,,,,,,,,,,,,,,,,,,,,,,,,,,,,,,,part100,A,John,Smith,19,Hombre,Estados Unidos,Tucson,Un poco de universidad,inglés,2019_Jun_03_1201,Segmentation,3.0.7,60.05045703599406,
,,,,filleritem4,poniente,largueza,mordiso,cortupto,sordera,rorencio,dabtura,ropero,,,,,,,,,,,,,,,,,,,,,,,,,,,,,,,,,,,,,,,,,,,,,,,,,,,,,,,,,,,,,,,,,,,,1,0,1,0,0,7,7,4,,,,,,,,,,,,,,,,,,,,,,,,,,,,,,,,,,,,,,,,,,,,,,,,,,,,,,,part100,A,John,Smith,19,Hombre,Estados Unidos,Tucson,Un poco de universidad,inglés,2019_Jun_03_1201,Segmentation,3.0.7,60.05045703599406,
,,,,filleritem7,noviazgo,ternera,tenvila,jagito,pocilga,vinsosta,fensuace,batuta,,,,,,,,,,,,,,,,,,,,,,,,,,,,,,,,,,,,,,,,,,,,,,,,,,,,,,,,,,,,,,,,,,,,1,0,1,0,0,8,8,7,,,,,,,,,,,,,,,,,,,,,,,,,,,,,,,,,,,,,,,,,,,,,,,,,,,,,,,part100,A,John,Smith,19,Hombre,Estados Unidos,Tucson,Un poco de universidad,inglés,2019_Jun_03_1201,Segmentation,3.0.7,60.05045703599406,
,,,,filleritem1,bacteria,farsante,nencida,parvaza,campaña,gimega,navura,burrada,,,,,,,,,,,,,,,,,,,,,,,,,,,,,,,,,,,,,,,,,,,,,,,,,,,,,,,,,,,,,,,,,,,,1,0,1,0,0,9,9,1,,,,,,,,,,,,,,,,,,,,,,,,,,,,,,,,,,,,,,,,,,,,,,,,,,,,,,,part100,A,John,Smith,19,Hombre,Estados Unidos,Tucson,Un poco de universidad,inglés,2019_Jun_03_1201,Segmentation,3.0.7,60.05045703599406,
,,,,targetSyl,sil,cos,si,ven,ve,del,co,de,,,,,,,,,,,,,,,,,,,,,,,,,,,,,,,,,,,,,,,,,,,,,,,,,,,,,,,,,,,,,,,,,,,,1,0,1,0,,,,,,,,,,,,,,,,,,,,,,,,,,,,,,,,,,,,,,,,,,,,,,,,,,,,,,,,,,,part100,A,John,Smith,19,Hombre,Estados Unidos,Tucson,Un poco de universidad,inglés,2019_Jun_03_1201,Segmentation,3.0.7,60.05045703599406,
,,,,carrierItem,silbido,cosigna,sildedo,venuro,venado,delbides,coserna,deltoides,,,,,,,,,,,,,,,,,,,,,,,,,,,,,,,,,,,,,,,,,,,,,,,,,,,,,,,,,,,,,,,,,,,,2,0,2,0,0,0,0,0,,,,,,,,,,,,,,,,,,,,,,,,,,,,,,,,,,,,,,,,,,,,,,,,,,,,,,,part100,A,John,Smith,19,Hombre,Estados Unidos,Tucson,Un poco de universidad,inglés,2019_Jun_03_1201,Segmentation,3.0.7,60.05045703599406,
,,,,filleritem8,donaire,pureza,devillo,foscillo,cigoto,nocena,galgango,vaquilla,,,,,,,,,,,,,,,,,,,,,,,,,,,,,,,,,,,,,,,,,,,,,,,,,,,,,,,,,,,,,,,,,,,,2,0,2,0,0,1,1,8,,,,,,,,,,,,,,,,,,,,,,,,,,,,,,,,,,,,,,,,,,,,,,,,,,,,,,,part100,A,John,Smith,19,Hombre,Estados Unidos,Tucson,Un poco de universidad,inglés,2019_Jun_03_1201,Segmentation,3.0.7,60.05045703599406,
,,,,filleritem3,congreso,vergüenza,deciro,sutnido,gozada,gaferdo,vavipo,varilla,,,,,,,,,,,,,,,,,,,,,,,,,,,,,,,,,,,,,,,,,,,,,,,,,,,,,,,,,,,,,,,,,,,,2,0,2,0,0,2,2,3,,,,,,,,,,,,,,,,,,,,,,,,,,,,,,,,,,,,,,,,,,,,,,,,,,,,,,,part100,A,John,Smith,19,Hombre,Estados Unidos,Tucson,Un poco de universidad,inglés,2019_Jun_03_1201,Segmentation,3.0.7,60.05045703599406,
,,,,filleritem7,noviazgo,ternera,tenvila,jagito,pocilga,vinsosta,fensuace,batuta,,,,,,,,,,,,,,,,,,,,,,,,,,,,,,,,,,,,,,,,,,,,,,,,,,,,,,,,,,,,,,,,,,,,2,0,2,0,0,3,3,7,,,,,,,,,,,,,,,,,,,,,,,,,,,,,,,,,,,,,,,,,,,,,,,,,,,,,,,part100,A,John,Smith,19,Hombre,Estados Unidos,Tucson,Un poco de universidad,inglés,2019_Jun_03_1201,Segmentation,3.0.7,60.05045703599406,
,,,,filleritem6,reguero,regato,tocida,simona,cizalla,vantema,dezida,ramaje,,,,,,,,,,,,,,,,,,,,,,,,,,,,,,,,,,,,,,,,,,,,,,,,,,,,,,,,,,,,,,,,,,,,2,0,2,0,0,4,4,6,,,,,,,,,,,,,,,,,,,,,,,,,,,,,,,,,,,,,,,,,,,,,,,,,,,,,,,part100,A,John,Smith,19,Hombre,Estados Unidos,Tucson,Un poco de universidad,inglés,2019_Jun_03_1201,Segmentation,3.0.7,60.05045703599406,
,,,,filleritem1,bacteria,farsante,nencida,parvaza,campaña,gimega,navura,burrada,,,,,,,,,,,,,,,,,,,,,,,,,,,,,,,,,,,,,,,,,,,,,,,,,,,,,,,,,,,,,,,,,,,,2,0,2,0,0,5,5,1,,,,,,,,,,,,,,,,,,,,,,,,,,,,,,,,,,,,,,,,,,,,,,,,,,,,,,,part100,A,John,Smith,19,Hombre,Estados Unidos,Tucson,Un poco de universidad,inglés,2019_Jun_03_1201,Segmentation,3.0.7,60.05045703599406,
,,,,filleritem2,confianza,rivera,farime,tarsallo,sarcasmo,bascana,purjida,tungsteno,,,,,,,,,,,,,,,,,,,,,,,,,,,,,,,,,,,,,,,,,,,,,,,,,,,,,,,,,,,,,,,,,,,,2,0,2,0,0,6,6,2,,,,,,,,,,,,,,,,,,,,,,,,,,,,,,,,,,,,,,,,,,,,,,,,,,,,,,,part100,A,John,Smith,19,Hombre,Estados Unidos,Tucson,Un poco de universidad,inglés,2019_Jun_03_1201,Segmentation,3.0.7,60.05045703599406,
,,,,filleritem4,poniente,largueza,mordiso,cortupto,sordera,rorencio,dabtura,ropero,,,,,,,,,,,,,,,,,,,,,,,,,,,,,,,,,,,,,,,,,,,,,,,,,,,,,,,,,,,,,,,,,,,,2,0,2,0,0,7,7,4,,,,,,,,,,,,,,,,,,,,,,,,,,,,,,,,,,,,,,,,,,,,,,,,,,,,,,,part100,A,John,Smith,19,Hombre,Estados Unidos,Tucson,Un poco de universidad,inglés,2019_Jun_03_1201,Segmentation,3.0.7,60.05045703599406,
,,,,filleritem9,recodo,percance,rofiolo,tosaba,cornisa,ricobo,binima,sufragio,,,,,,,,,,,,,,,,,,,,,,,,,,,,,,,,,,,,,,,,,,,,,,,,,,,,,,,,,,,,,,,,,,,,2,0,2,0,0,8,8,9,,,,,,,,,,,,,,,,,,,,,,,,,,,,,,,,,,,,,,,,,,,,,,,,,,,,,,,part100,A,John,Smith,19,Hombre,Estados Unidos,Tucson,Un poco de universidad,inglés,2019_Jun_03_1201,Segmentation,3.0.7,60.05045703599406,
,,,,filleritem5,concepto,rabillo,vangurdo,tolina,rasguño,tusvuja,tencrido,forraje,,,,,,,,,,,,,,,,,,,,,,,,,,,,,,,,,,,,,,,,,,,,,,,,,,,,,,,,,,,,,,,,,,,,2,0,2,0,0,9,9,5,,,,,,,,,,,,,,,,,,,,,,,,,,,,,,,,,,,,,,,,,,,,,,,,,,,,,,,part100,A,John,Smith,19,Hombre,Estados Unidos,Tucson,Un poco de universidad,inglés,2019_Jun_03_1201,Segmentation,3.0.7,60.05045703599406,
,,,,targetSyl,sil,cos,si,ven,ve,del,co,de,,,,,,,,,,,,,,,,,,,,,,,,,,,,,,,,,,,,,,,,,,,,,,,,,,,,,,,,,,,,,,,,,,,,2,0,2,0,,,,,,,,,,,,,,,,,,,,,,,,,,,,,,,,,,,,,,,,,,,,,,,,,,,,,,,,,,,part100,A,John,Smith,19,Hombre,Estados Unidos,Tucson,Un poco de universidad,inglés,2019_Jun_03_1201,Segmentation,3.0.7,60.05045703599406,
,,,,carrierItem,silbido,cosigna,sildedo,venuro,venado,delbides,coserna,deltoides,,,,,,,,,,,,,,,,,,,,,,,,,,,,,,,,,,,,,,,,,,,,,,,,,,,,,,,,,,,,,,,,,,,,3,0,3,0,0,0,0,0,,,,,,,,,,,,,,,,,,,,,,,,,,,,,,,,,,,,,,,,,,,,,,,,,,,,,,,part100,A,John,Smith,19,Hombre,Estados Unidos,Tucson,Un poco de universidad,inglés,2019_Jun_03_1201,Segmentation,3.0.7,60.05045703599406,
,,,,filleritem5,concepto,rabillo,vangurdo,tolina,rasguño,tusvuja,tencrido,forraje,,,,,,,,,,,,,,,,,,,,,,,,,,,,,,,,,,,,,,,,,,,,,,,,,,,,,,,,,,,,,,,,,,,,3,0,3,0,0,1,1,5,,,,,,,,,,,,,,,,,,,,,,,,,,,,,,,,,,,,,,,,,,,,,,,,,,,,,,,part100,A,John,Smith,19,Hombre,Estados Unidos,Tucson,Un poco de universidad,inglés,2019_Jun_03_1201,Segmentation,3.0.7,60.05045703599406,
,,,,filleritem4,poniente,largueza,mordiso,cortupto,sordera,rorencio,dabtura,ropero,,,,,,,,,,,,,,,,,,,,,,,,,,,,,,,,,,,,,,,,,,,,,,,,,,,,,,,,,,,,,,,,,,,,3,0,3,0,0,2,2,4,,,,,,,,,,,,,,,,,,,,,,,,,,,,,,,,,,,,,,,,,,,,,,,,,,,,,,,part100,A,John,Smith,19,Hombre,Estados Unidos,Tucson,Un poco de universidad,inglés,2019_Jun_03_1201,Segmentation,3.0.7,60.05045703599406,
,,,,filleritem7,noviazgo,ternera,tenvila,jagito,pocilga,vinsosta,fensuace,batuta,,,,,,,,,,,,,,,,,,,,,,,,,,,,,,,,,,,,,,,,,,,,,,,,,,,,,,,,,,,,,,,,,,,,3,0,3,0,0,3,3,7,,,,,,,,,,,,,,,,,,,,,,,,,,,,,,,,,,,,,,,,,,,,,,,,,,,,,,,part100,A,John,Smith,19,Hombre,Estados Unidos,Tucson,Un poco de universidad,inglés,2019_Jun_03_1201,Segmentation,3.0.7,60.05045703599406,
,,,,filleritem2,confianza,rivera,farime,tarsallo,sarcasmo,bascana,purjida,tungsteno,,,,,,,,,,,,,,,,,,,,,,,,,,,,,,,,,,,,,,,,,,,,,,,,,,,,,,,,,,,,,,,,,,,,3,0,3,0,0,4,4,2,,,,,,,,,,,,,,,,,,,,,,,,,,,,,,,,,,,,,,,,,,,,,,,,,,,,,,,part100,A,John,Smith,19,Hombre,Estados Unidos,Tucson,Un poco de universidad,inglés,2019_Jun_03_1201,Segmentation,3.0.7,60.05045703599406,
,,,,filleritem8,donaire,pureza,devillo,foscillo,cigoto,nocena,galgango,vaquilla,,,,,,,,,,,,,,,,,,,,,,,,,,,,,,,,,,,,,,,,,,,,,,,,,,,,,,,,,,,,,,,,,,,,3,0,3,0,0,5,5,8,,,,,,,,,,,,,,,,,,,,,,,,,,,,,,,,,,,,,,,,,,,,,,,,,,,,,,,part100,A,John,Smith,19,Hombre,Estados Unidos,Tucson,Un poco de universidad,inglés,2019_Jun_03_1201,Segmentation,3.0.7,60.05045703599406,
,,,,filleritem3,congreso,vergüenza,deciro,sutnido,gozada,gaferdo,vavipo,varilla,,,,,,,,,,,,,,,,,,,,,,,,,,,,,,,,,,,,,,,,,,,,,,,,,,,,,,,,,,,,,,,,,,,,3,0,3,0,0,6,6,3,,,,,,,,,,,,,,,,,,,,,,,,,,,,,,,,,,,,,,,,,,,,,,,,,,,,,,,part100,A,John,Smith,19,Hombre,Estados Unidos,Tucson,Un poco de universidad,inglés,2019_Jun_03_1201,Segmentation,3.0.7,60.05045703599406,
,,,,filleritem6,reguero,regato,tocida,simona,cizalla,vantema,dezida,ramaje,,,,,,,,,,,,,,,,,,,,,,,,,,,,,,,,,,,,,,,,,,,,,,,,,,,,,,,,,,,,,,,,,,,,3,0,3,0,0,7,7,6,,,,,,,,,,,,,,,,,,,,,,,,,,,,,,,,,,,,,,,,,,,,,,,,,,,,,,,part100,A,John,Smith,19,Hombre,Estados Unidos,Tucson,Un poco de universidad,inglés,2019_Jun_03_1201,Segmentation,3.0.7,60.05045703599406,
,,,,filleritem9,recodo,percance,rofiolo,tosaba,cornisa,ricobo,binima,sufragio,,,,,,,,,,,,,,,,,,,,,,,,,,,,,,,,,,,,,,,,,,,,,,,,,,,,,,,,,,,,,,,,,,,,3,0,3,0,0,8,8,9,,,,,,,,,,,,,,,,,,,,,,,,,,,,,,,,,,,,,,,,,,,,,,,,,,,,,,,part100,A,John,Smith,19,Hombre,Estados Unidos,Tucson,Un poco de universidad,inglés,2019_Jun_03_1201,Segmentation,3.0.7,60.05045703599406,
,,,,filleritem1,bacteria,farsante,nencida,parvaza,campaña,gimega,navura,burrada,,,,,,,,,,,,,,,,,,,,,,,,,,,,,,,,,,,,,,,,,,,,,,,,,,,,,,,,,,,,,,,,,,,,3,0,3,0,0,9,9,1,,,,,,,,,,,,,,,,,,,,,,,,,,,,,,,,,,,,,,,,,,,,,,,,,,,,,,,part100,A,John,Smith,19,Hombre,Estados Unidos,Tucson,Un poco de universidad,inglés,2019_Jun_03_1201,Segmentation,3.0.7,60.05045703599406,
,,,,targetSyl,sil,cos,si,ven,ve,del,co,de,,,,,,,,,,,,,,,,,,,,,,,,,,,,,,,,,,,,,,,,,,,,,,,,,,,,,,,,,,,,,,,,,,,,3,0,3,0,,,,,,,,,,,,,,,,,,,,,,,,,,,,,,,,,,,,,,,,,,,,,,,,,,,,,,,,,,,part100,A,John,Smith,19,Hombre,Estados Unidos,Tucson,Un poco de universidad,inglés,2019_Jun_03_1201,Segmentation,3.0.7,60.05045703599406,
,,,,filleritem3,congreso,vergüenza,deciro,sutnido,gozada,gaferdo,vavipo,varilla,,,,,,,,,,,,,,,,,,,,,,,,,,,,,,,,,,,,,,,,,,,,,,,,,,,,,,,,,,,,,,,,,,,,4,0,4,0,0,0,0,3,,,,,,,,,,,,,,,,,,,,,,,,,,,,,,,,,,,,,,,,,,,,,,,,,,,,,,,part100,A,John,Smith,19,Hombre,Estados Unidos,Tucson,Un poco de universidad,inglés,2019_Jun_03_1201,Segmentation,3.0.7,60.05045703599406,
,,,,filleritem7,noviazgo,ternera,tenvila,jagito,pocilga,vinsosta,fensuace,batuta,,,,,,,,,,,,,,,,,,,,,,,,,,,,,,,,,,,,,,,,,,,,,,,,,,,,,,,,,,,,,,,,,,,,4,0,4,0,0,1,1,7,,,,,,,,,,,,,,,,,,,,,,,,,,,,,,,,,,,,,,,,,,,,,,,,,,,,,,,part100,A,John,Smith,19,Hombre,Estados Unidos,Tucson,Un poco de universidad,inglés,2019_Jun_03_1201,Segmentation,3.0.7,60.05045703599406,
,,,,filleritem9,recodo,percance,rofiolo,tosaba,cornisa,ricobo,binima,sufragio,,,,,,,,,,,,,,,,,,,,,,,,,,,,,,,,,,,,,,,,,,,,,,,,,,,,,,,,,,,,,,,,,,,,4,0,4,0,0,2,2,9,,,,,,,,,,,,,,,,,,,,,,,,,,,,,,,,,,,,,,,,,,,,,,,,,,,,,,,part100,A,John,Smith,19,Hombre,Estados Unidos,Tucson,Un poco de universidad,inglés,2019_Jun_03_1201,Segmentation,3.0.7,60.05045703599406,
,,,,filleritem5,concepto,rabillo,vangurdo,tolina,rasguño,tusvuja,tencrido,forraje,,,,,,,,,,,,,,,,,,,,,,,,,,,,,,,,,,,,,,,,,,,,,,,,,,,,,,,,,,,,,,,,,,,,4,0,4,0,0,3,3,5,,,,,,,,,,,,,,,,,,,,,,,,,,,,,,,,,,,,,,,,,,,,,,,,,,,,,,,part100,A,John,Smith,19,Hombre,Estados Unidos,Tucson,Un poco de universidad,inglés,2019_Jun_03_1201,Segmentation,3.0.7,60.05045703599406,
,,,,carrierItem,silbido,cosigna,sildedo,venuro,venado,delbides,coserna,deltoides,,,,,,,,,,,,,,,,,,,,,,,,,,,,,,,,,,,,,,,,,,,,,,,,,,,,,,,,,,,,,,,,,,,,4,0,4,0,0,4,4,0,,,,,,,,,,,,,,,,,,,,,,,,,,,,,,,,,,,,,,,,,,,,,,,,,,,,,,,part100,A,John,Smith,19,Hombre,Estados Unidos,Tucson,Un poco de universidad,inglés,2019_Jun_03_1201,Segmentation,3.0.7,60.05045703599406,
,,,,filleritem2,confianza,rivera,farime,tarsallo,sarcasmo,bascana,purjida,tungsteno,,,,,,,,,,,,,,,,,,,,,,,,,,,,,,,,,,,,,,,,,,,,,,,,,,,,,,,,,,,,,,,,,,,,4,0,4,0,0,5,5,2,,,,,,,,,,,,,,,,,,,,,,,,,,,,,,,,,,,,,,,,,,,,,,,,,,,,,,,part100,A,John,Smith,19,Hombre,Estados Unidos,Tucson,Un poco de universidad,inglés,2019_Jun_03_1201,Segmentation,3.0.7,60.05045703599406,
,,,,filleritem6,reguero,regato,tocida,simona,cizalla,vantema,dezida,ramaje,,,,,,,,,,,,,,,,,,,,,,,,,,,,,,,,,,,,,,,,,,,,,,,,,,,,,,,,,,,,,,,,,,,,4,0,4,0,0,6,6,6,,,,,,,,,,,,,,,,,,,,,,,,,,,,,,,,,,,,,,,,,,,,,,,,,,,,,,,part100,A,John,Smith,19,Hombre,Estados Unidos,Tucson,Un poco de universidad,inglés,2019_Jun_03_1201,Segmentation,3.0.7,60.05045703599406,
,,,,filleritem4,poniente,largueza,mordiso,cortupto,sordera,rorencio,dabtura,ropero,,,,,,,,,,,,,,,,,,,,,,,,,,,,,,,,,,,,,,,,,,,,,,,,,,,,,,,,,,,,,,,,,,,,4,0,4,0,0,7,7,4,,,,,,,,,,,,,,,,,,,,,,,,,,,,,,,,,,,,,,,,,,,,,,,,,,,,,,,part100,A,John,Smith,19,Hombre,Estados Unidos,Tucson,Un poco de universidad,inglés,2019_Jun_03_1201,Segmentation,3.0.7,60.05045703599406,
,,,,filleritem1,bacteria,farsante,nencida,parvaza,campaña,gimega,navura,burrada,,,,,,,,,,,,,,,,,,,,,,,,,,,,,,,,,,,,,,,,,,,,,,,,,,,,,,,,,,,,,,,,,,,,4,0,4,0,0,8,8,1,,,,,,,,,,,,,,,,,,,,,,,,,,,,,,,,,,,,,,,,,,,,,,,,,,,,,,,part100,A,John,Smith,19,Hombre,Estados Unidos,Tucson,Un poco de universidad,inglés,2019_Jun_03_1201,Segmentation,3.0.7,60.05045703599406,
,,,,filleritem8,donaire,pureza,devillo,foscillo,cigoto,nocena,galgango,vaquilla,,,,,,,,,,,,,,,,,,,,,,,,,,,,,,,,,,,,,,,,,,,,,,,,,,,,,,,,,,,,,,,,,,,,4,0,4,0,0,9,9,8,,,,,,,,,,,,,,,,,,,,,,,,,,,,,,,,,,,,,,,,,,,,,,,,,,,,,,,part100,A,John,Smith,19,Hombre,Estados Unidos,Tucson,Un poco de universidad,inglés,2019_Jun_03_1201,Segmentation,3.0.7,60.05045703599406,
,,,,targetSyl,sil,cos,si,ven,ve,del,co,de,,,,,,,,,,,,,,,,,,,,,,,,,,,,,,,,,,,,,,,,,,,,,,,,,,,,,,,,,,,,,,,,,,,,4,0,4,0,,,,,,,,,,,,,,,,,,,,,,,,,,,,,,,,,,,,,,,,,,,,,,,,,,,,,,,,,,,part100,A,John,Smith,19,Hombre,Estados Unidos,Tucson,Un poco de universidad,inglés,2019_Jun_03_1201,Segmentation,3.0.7,60.05045703599406,
,,,,filleritem9,recodo,percance,rofiolo,tosaba,cornisa,ricobo,binima,sufragio,,,,,,,,,,,,,,,,,,,,,,,,,,,,,,,,,,,,,,,,,,,,,,,,,,,,,,,,,,,,,,,,,,,,5,0,5,0,0,0,0,9,,,,,,,,,,,,,,,,,,,,,,,,,,,,,,,,,,,,,,,,,,,,,,,,,,,,,,,part100,A,John,Smith,19,Hombre,Estados Unidos,Tucson,Un poco de universidad,inglés,2019_Jun_03_1201,Segmentation,3.0.7,60.05045703599406,
,,,,filleritem5,concepto,rabillo,vangurdo,tolina,rasguño,tusvuja,tencrido,forraje,,,,,,,,,,,,,,,,,,,,,,,,,,,,,,,,,,,,,,,,,,,,,,,,,,,,,,,,,,,,,,,,,,,,5,0,5,0,0,1,1,5,,,,,,,,,,,,,,,,,,,,,,,,,,,,,,,,,,,,,,,,,,,,,,,,,,,,,,,part100,A,John,Smith,19,Hombre,Estados Unidos,Tucson,Un poco de universidad,inglés,2019_Jun_03_1201,Segmentation,3.0.7,60.05045703599406,
,,,,filleritem2,confianza,rivera,farime,tarsallo,sarcasmo,bascana,purjida,tungsteno,,,,,,,,,,,,,,,,,,,,,,,,,,,,,,,,,,,,,,,,,,,,,,,,,,,,,,,,,,,,,,,,,,,,5,0,5,0,0,2,2,2,,,,,,,,,,,,,,,,,,,,,,,,,,,,,,,,,,,,,,,,,,,,,,,,,,,,,,,part100,A,John,Smith,19,Hombre,Estados Unidos,Tucson,Un poco de universidad,inglés,2019_Jun_03_1201,Segmentation,3.0.7,60.05045703599406,
,,,,filleritem3,congreso,vergüenza,deciro,sutnido,gozada,gaferdo,vavipo,varilla,,,,,,,,,,,,,,,,,,,,,,,,,,,,,,,,,,,,,,,,,,,,,,,,,,,,,,,,,,,,,,,,,,,,5,0,5,0,0,3,3,3,,,,,,,,,,,,,,,,,,,,,,,,,,,,,,,,,,,,,,,,,,,,,,,,,,,,,,,part100,A,John,Smith,19,Hombre,Estados Unidos,Tucson,Un poco de universidad,inglés,2019_Jun_03_1201,Segmentation,3.0.7,60.05045703599406,
,,,,filleritem7,noviazgo,ternera,tenvila,jagito,pocilga,vinsosta,fensuace,batuta,,,,,,,,,,,,,,,,,,,,,,,,,,,,,,,,,,,,,,,,,,,,,,,,,,,,,,,,,,,,,,,,,,,,5,0,5,0,0,4,4,7,,,,,,,,,,,,,,,,,,,,,,,,,,,,,,,,,,,,,,,,,,,,,,,,,,,,,,,part100,A,John,Smith,19,Hombre,Estados Unidos,Tucson,Un poco de universidad,inglés,2019_Jun_03_1201,Segmentation,3.0.7,60.05045703599406,
,,,,carrierItem,silbido,cosigna,sildedo,venuro,venado,delbides,coserna,deltoides,,,,,,,,,,,,,,,,,,,,,,,,,,,,,,,,,,,,,,,,,,,,,,,,,,,,,,,,,,,,,,,,,,,,5,0,5,0,0,5,5,0,,,,,,,,,,,,,,,,,,,,,,,,,,,,,,,,,,,,,,,,,,,,,,,,,,,,,,,part100,A,John,Smith,19,Hombre,Estados Unidos,Tucson,Un poco de universidad,inglés,2019_Jun_03_1201,Segmentation,3.0.7,60.05045703599406,
,,,,filleritem6,reguero,regato,tocida,simona,cizalla,vantema,dezida,ramaje,,,,,,,,,,,,,,,,,,,,,,,,,,,,,,,,,,,,,,,,,,,,,,,,,,,,,,,,,,,,,,,,,,,,5,0,5,0,0,6,6,6,,,,,,,,,,,,,,,,,,,,,,,,,,,,,,,,,,,,,,,,,,,,,,,,,,,,,,,part100,A,John,Smith,19,Hombre,Estados Unidos,Tucson,Un poco de universidad,inglés,2019_Jun_03_1201,Segmentation,3.0.7,60.05045703599406,
,,,,filleritem4,poniente,largueza,mordiso,cortupto,sordera,rorencio,dabtura,ropero,,,,,,,,,,,,,,,,,,,,,,,,,,,,,,,,,,,,,,,,,,,,,,,,,,,,,,,,,,,,,,,,,,,,5,0,5,0,0,7,7,4,,,,,,,,,,,,,,,,,,,,,,,,,,,,,,,,,,,,,,,,,,,,,,,,,,,,,,,part100,A,John,Smith,19,Hombre,Estados Unidos,Tucson,Un poco de universidad,inglés,2019_Jun_03_1201,Segmentation,3.0.7,60.05045703599406,
,,,,filleritem1,bacteria,farsante,nencida,parvaza,campaña,gimega,navura,burrada,,,,,,,,,,,,,,,,,,,,,,,,,,,,,,,,,,,,,,,,,,,,,,,,,,,,,,,,,,,,,,,,,,,,5,0,5,0,0,8,8,1,,,,,,,,,,,,,,,,,,,,,,,,,,,,,,,,,,,,,,,,,,,,,,,,,,,,,,,part100,A,John,Smith,19,Hombre,Estados Unidos,Tucson,Un poco de universidad,inglés,2019_Jun_03_1201,Segmentation,3.0.7,60.05045703599406,
,,,,filleritem8,donaire,pureza,devillo,foscillo,cigoto,nocena,galgango,vaquilla,,,,,,,,,,,,,,,,,,,,,,,,,,,,,,,,,,,,,,,,,,,,,,,,,,,,,,,,,,,,,,,,,,,,5,0,5,0,0,9,9,8,,,,,,,,,,,,,,,,,,,,,,,,,,,,,,,,,,,,,,,,,,,,,,,,,,,,,,,part100,A,John,Smith,19,Hombre,Estados Unidos,Tucson,Un poco de universidad,inglés,2019_Jun_03_1201,Segmentation,3.0.7,60.05045703599406,
,,,,targetSyl,sil,cos,si,ven,ve,del,co,de,,,,,,,,,,,,,,,,,,,,,,,,,,,,,,,,,,,,,,,,,,,,,,,,,,,,,,,,,,,,,,,,,,,,5,0,5,0,,,,,,,,,,,,,,,,,,,,,,,,,,,,,,,,,,,,,,,,,,,,,,,,,,,,,,,,,,,part100,A,John,Smith,19,Hombre,Estados Unidos,Tucson,Un poco de universidad,inglés,2019_Jun_03_1201,Segmentation,3.0.7,60.05045703599406,
,,,,filleritem7,noviazgo,ternera,tenvila,jagito,pocilga,vinsosta,fensuace,batuta,,,,,,,,,,,,,,,,,,,,,,,,,,,,,,,,,,,,,,,,,,,,,,,,,,,,,,,,,,,,,,,,,,,,6,0,6,0,0,0,0,7,,,,,,,,,,,,,,,,,,,,,,,,,,,,,,,,,,,,,,,,,,,,,,,,,,,,,,,part100,A,John,Smith,19,Hombre,Estados Unidos,Tucson,Un poco de universidad,inglés,2019_Jun_03_1201,Segmentation,3.0.7,60.05045703599406,
,,,,filleritem5,concepto,rabillo,vangurdo,tolina,rasguño,tusvuja,tencrido,forraje,,,,,,,,,,,,,,,,,,,,,,,,,,,,,,,,,,,,,,,,,,,,,,,,,,,,,,,,,,,,,,,,,,,,6,0,6,0,0,1,1,5,,,,,,,,,,,,,,,,,,,,,,,,,,,,,,,,,,,,,,,,,,,,,,,,,,,,,,,part100,A,John,Smith,19,Hombre,Estados Unidos,Tucson,Un poco de universidad,inglés,2019_Jun_03_1201,Segmentation,3.0.7,60.05045703599406,
,,,,filleritem2,confianza,rivera,farime,tarsallo,sarcasmo,bascana,purjida,tungsteno,,,,,,,,,,,,,,,,,,,,,,,,,,,,,,,,,,,,,,,,,,,,,,,,,,,,,,,,,,,,,,,,,,,,6,0,6,0,0,2,2,2,,,,,,,,,,,,,,,,,,,,,,,,,,,,,,,,,,,,,,,,,,,,,,,,,,,,,,,part100,A,John,Smith,19,Hombre,Estados Unidos,Tucson,Un poco de universidad,inglés,2019_Jun_03_1201,Segmentation,3.0.7,60.05045703599406,
,,,,carrierItem,silbido,cosigna,sildedo,venuro,venado,delbides,coserna,deltoides,,,,,,,,,,,,,,,,,,,,,,,,,,,,,,,,,,,,,,,,,,,,,,,,,,,,,,,,,,,,,,,,,,,,6,0,6,0,0,3,3,0,,,,,,,,,,,,,,,,,,,,,,,,,,,,,,,,,,,,,,,,,,,,,,,,,,,,,,,part100,A,John,Smith,19,Hombre,Estados Unidos,Tucson,Un poco de universidad,inglés,2019_Jun_03_1201,Segmentation,3.0.7,60.05045703599406,
,,,,filleritem9,recodo,percance,rofiolo,tosaba,cornisa,ricobo,binima,sufragio,,,,,,,,,,,,,,,,,,,,,,,,,,,,,,,,,,,,,,,,,,,,,,,,,,,,,,,,,,,,,,,,,,,,6,0,6,0,0,4,4,9,,,,,,,,,,,,,,,,,,,,,,,,,,,,,,,,,,,,,,,,,,,,,,,,,,,,,,,part100,A,John,Smith,19,Hombre,Estados Unidos,Tucson,Un poco de universidad,inglés,2019_Jun_03_1201,Segmentation,3.0.7,60.05045703599406,
,,,,filleritem1,bacteria,farsante,nencida,parvaza,campaña,gimega,navura,burrada,,,,,,,,,,,,,,,,,,,,,,,,,,,,,,,,,,,,,,,,,,,,,,,,,,,,,,,,,,,,,,,,,,,,6,0,6,0,0,5,5,1,,,,,,,,,,,,,,,,,,,,,,,,,,,,,,,,,,,,,,,,,,,,,,,,,,,,,,,part100,A,John,Smith,19,Hombre,Estados Unidos,Tucson,Un poco de universidad,inglés,2019_Jun_03_1201,Segmentation,3.0.7,60.05045703599406,
,,,,filleritem6,reguero,regato,tocida,simona,cizalla,vantema,dezida,ramaje,,,,,,,,,,,,,,,,,,,,,,,,,,,,,,,,,,,,,,,,,,,,,,,,,,,,,,,,,,,,,,,,,,,,6,0,6,0,0,6,6,6,,,,,,,,,,,,,,,,,,,,,,,,,,,,,,,,,,,,,,,,,,,,,,,,,,,,,,,part100,A,John,Smith,19,Hombre,Estados Unidos,Tucson,Un poco de universidad,inglés,2019_Jun_03_1201,Segmentation,3.0.7,60.05045703599406,
,,,,filleritem3,congreso,vergüenza,deciro,sutnido,gozada,gaferdo,vavipo,varilla,,,,,,,,,,,,,,,,,,,,,,,,,,,,,,,,,,,,,,,,,,,,,,,,,,,,,,,,,,,,,,,,,,,,6,0,6,0,0,7,7,3,,,,,,,,,,,,,,,,,,,,,,,,,,,,,,,,,,,,,,,,,,,,,,,,,,,,,,,part100,A,John,Smith,19,Hombre,Estados Unidos,Tucson,Un poco de universidad,inglés,2019_Jun_03_1201,Segmentation,3.0.7,60.05045703599406,
,,,,filleritem8,donaire,pureza,devillo,foscillo,cigoto,nocena,galgango,vaquilla,,,,,,,,,,,,,,,,,,,,,,,,,,,,,,,,,,,,,,,,,,,,,,,,,,,,,,,,,,,,,,,,,,,,6,0,6,0,0,8,8,8,,,,,,,,,,,,,,,,,,,,,,,,,,,,,,,,,,,,,,,,,,,,,,,,,,,,,,,part100,A,John,Smith,19,Hombre,Estados Unidos,Tucson,Un poco de universidad,inglés,2019_Jun_03_1201,Segmentation,3.0.7,60.05045703599406,
,,,,filleritem4,poniente,largueza,mordiso,cortupto,sordera,rorencio,dabtura,ropero,,,,,,,,,,,,,,,,,,,,,,,,,,,,,,,,,,,,,,,,,,,,,,,,,,,,,,,,,,,,,,,,,,,,6,0,6,0,0,9,9,4,,,,,,,,,,,,,,,,,,,,,,,,,,,,,,,,,,,,,,,,,,,,,,,,,,,,,,,part100,A,John,Smith,19,Hombre,Estados Unidos,Tucson,Un poco de universidad,inglés,2019_Jun_03_1201,Segmentation,3.0.7,60.05045703599406,
,,,,targetSyl,sil,cos,si,ven,ve,del,co,de,,,,,,,,,,,,,,,,,,,,,,,,,,,,,,,,,,,,,,,,,,,,,,,,,,,,,,,,,,,,,,,,,,,,6,0,6,0,,,,,,,,,,,,,,,,,,,,,,,,,,,,,,,,,,,,,,,,,,,,,,,,,,,,,,,,,,,part100,A,John,Smith,19,Hombre,Estados Unidos,Tucson,Un poco de universidad,inglés,2019_Jun_03_1201,Segmentation,3.0.7,60.05045703599406,
,,,,filleritem3,congreso,vergüenza,deciro,sutnido,gozada,gaferdo,vavipo,varilla,,,,,,,,,,,,,,,,,,,,,,,,,,,,,,,,,,,,,,,,,,,,,,,,,,,,,,,,,,,,,,,,,,,,7,0,7,0,0,0,0,3,,,,,,,,,,,,,,,,,,,,,,,,,,,,,,,,,,,,,,,,,,,,,,,,,,,,,,,part100,A,John,Smith,19,Hombre,Estados Unidos,Tucson,Un poco de universidad,inglés,2019_Jun_03_1201,Segmentation,3.0.7,60.05045703599406,
,,,,filleritem5,concepto,rabillo,vangurdo,tolina,rasguño,tusvuja,tencrido,forraje,,,,,,,,,,,,,,,,,,,,,,,,,,,,,,,,,,,,,,,,,,,,,,,,,,,,,,,,,,,,,,,,,,,,7,0,7,0,0,1,1,5,,,,,,,,,,,,,,,,,,,,,,,,,,,,,,,,,,,,,,,,,,,,,,,,,,,,,,,part100,A,John,Smith,19,Hombre,Estados Unidos,Tucson,Un poco de universidad,inglés,2019_Jun_03_1201,Segmentation,3.0.7,60.05045703599406,
,,,,carrierItem,silbido,cosigna,sildedo,venuro,venado,delbides,coserna,deltoides,,,,,,,,,,,,,,,,,,,,,,,,,,,,,,,,,,,,,,,,,,,,,,,,,,,,,,,,,,,,,,,,,,,,7,0,7,0,0,2,2,0,,,,,,,,,,,,,,,,,,,,,,,,,,,,,,,,,,,,,,,,,,,,,,,,,,,,,,,part100,A,John,Smith,19,Hombre,Estados Unidos,Tucson,Un poco de universidad,inglés,2019_Jun_03_1201,Segmentation,3.0.7,60.05045703599406,
,,,,filleritem6,reguero,regato,tocida,simona,cizalla,vantema,dezida,ramaje,,,,,,,,,,,,,,,,,,,,,,,,,,,,,,,,,,,,,,,,,,,,,,,,,,,,,,,,,,,,,,,,,,,,7,0,7,0,0,3,3,6,,,,,,,,,,,,,,,,,,,,,,,,,,,,,,,,,,,,,,,,,,,,,,,,,,,,,,,part100,A,John,Smith,19,Hombre,Estados Unidos,Tucson,Un poco de universidad,inglés,2019_Jun_03_1201,Segmentation,3.0.7,60.05045703599406,
,,,,filleritem9,recodo,percance,rofiolo,tosaba,cornisa,ricobo,binima,sufragio,,,,,,,,,,,,,,,,,,,,,,,,,,,,,,,,,,,,,,,,,,,,,,,,,,,,,,,,,,,,,,,,,,,,7,0,7,0,0,4,4,9,,,,,,,,,,,,,,,,,,,,,,,,,,,,,,,,,,,,,,,,,,,,,,,,,,,,,,,part100,A,John,Smith,19,Hombre,Estados Unidos,Tucson,Un poco de universidad,inglés,2019_Jun_03_1201,Segmentation,3.0.7,60.05045703599406,
,,,,filleritem7,noviazgo,ternera,tenvila,jagito,pocilga,vinsosta,fensuace,batuta,,,,,,,,,,,,,,,,,,,,,,,,,,,,,,,,,,,,,,,,,,,,,,,,,,,,,,,,,,,,,,,,,,,,7,0,7,0,0,5,5,7,,,,,,,,,,,,,,,,,,,,,,,,,,,,,,,,,,,,,,,,,,,,,,,,,,,,,,,part100,A,John,Smith,19,Hombre,Estados Unidos,Tucson,Un poco de universidad,inglés,2019_Jun_03_1201,Segmentation,3.0.7,60.05045703599406,
,,,,filleritem4,poniente,largueza,mordiso,cortupto,sordera,rorencio,dabtura,ropero,,,,,,,,,,,,,,,,,,,,,,,,,,,,,,,,,,,,,,,,,,,,,,,,,,,,,,,,,,,,,,,,,,,,7,0,7,0,0,6,6,4,,,,,,,,,,,,,,,,,,,,,,,,,,,,,,,,,,,,,,,,,,,,,,,,,,,,,,,part100,A,John,Smith,19,Hombre,Estados Unidos,Tucson,Un poco de universidad,inglés,2019_Jun_03_1201,Segmentation,3.0.7,60.05045703599406,
,,,,filleritem2,confianza,rivera,farime,tarsallo,sarcasmo,bascana,purjida,tungsteno,,,,,,,,,,,,,,,,,,,,,,,,,,,,,,,,,,,,,,,,,,,,,,,,,,,,,,,,,,,,,,,,,,,,7,0,7,0,0,7,7,2,,,,,,,,,,,,,,,,,,,,,,,,,,,,,,,,,,,,,,,,,,,,,,,,,,,,,,,part100,A,John,Smith,19,Hombre,Estados Unidos,Tucson,Un poco de universidad,inglés,2019_Jun_03_1201,Segmentation,3.0.7,60.05045703599406,
,,,,filleritem1,bacteria,farsante,nencida,parvaza,campaña,gimega,navura,burrada,,,,,,,,,,,,,,,,,,,,,,,,,,,,,,,,,,,,,,,,,,,,,,,,,,,,,,,,,,,,,,,,,,,,7,0,7,0,0,8,8,1,,,,,,,,,,,,,,,,,,,,,,,,,,,,,,,,,,,,,,,,,,,,,,,,,,,,,,,part100,A,John,Smith,19,Hombre,Estados Unidos,Tucson,Un poco de universidad,inglés,2019_Jun_03_1201,Segmentation,3.0.7,60.05045703599406,
,,,,filleritem8,donaire,pureza,devillo,foscillo,cigoto,nocena,galgango,vaquilla,,,,,,,,,,,,,,,,,,,,,,,,,,,,,,,,,,,,,,,,,,,,,,,,,,,,,,,,,,,,,,,,,,,,7,0,7,0,0,9,9,8,,,,,,,,,,,,,,,,,,,,,,,,,,,,,,,,,,,,,,,,,,,,,,,,,,,,,,,part100,A,John,Smith,19,Hombre,Estados Unidos,Tucson,Un poco de universidad,inglés,2019_Jun_03_1201,Segmentation,3.0.7,60.05045703599406,
,,,,targetSyl,sil,cos,si,ven,ve,del,co,de,,,,,,,,,,,,,,,,,,,,,,,,,,,,,,,,,,,,,,,,,,,,,,,,,,,,,,,,,,,,,,,,,,,,7,0,7,0,,,,,,,,,,,,,,,,,,,,,,,,,,,,,,,,,,,,,,,,,,,,,,,,,,,,,,,,,,,part100,A,John,Smith,19,Hombre,Estados Unidos,Tucson,Un poco de universidad,inglés,2019_Jun_03_1201,Segmentation,3.0.7,60.05045703599406,
,,,,,,,,,,,,,filleritem7,legajo,suceso,noñita,riqueza,fijeza,sunsanso,fensuale,costonche,tecterio,nastallo,jacinto,fuzallo,recato,rizgura,cuntela,tarima,rudeza,talaja,rucilla,siquija,vigilia,tornanga,regata,fajardo,canreza,salero,topacio,cimiento,picota,resabio,puljida,recurso,mifena,tarbenga,lavabo,redada,dipona,berana,vicime,taquilla,donania,bufido,meptrona,barcaza,dilisia,dosbiente,tobera,dolencia,,,,,,,,,,,,,,,,,,,,,,,,,,,0,0,0,0,0,0,0,7,,,,,,,,,,,,,,,,,,,,,,,,,,,,,,,,None,,,,,,,,,,,,,,,part100,A,John,Smith,19,Hombre,Estados Unidos,Tucson,Un poco de universidad,inglés,2019_Jun_03_1201,Segmentation,3.0.7,60.05045703599406,
,,,,,,,,,,,,,filleritem1,pantalla,sandía,vofida,tejado,pintura,depite,cabsiva,poncilla,ricofo,palcillo,langosta,biluesa,narciso,tomida,tulvano,juntura,certeza,docado,hicuila,senena,zancada,parvida,gorguera,tinaja,tidioma,ventana,porfía,lumbrera,renombre,submundo,balzalla,tartana,divona,lirina,talante,zarzuela,nesedo,tifencio,salfrabla,zapato,denciña,bengala,tidencio,portillo,demida,soponso,punzada,testigo,,,,,,,,,,,,,,,,,,,,,,,,,,,0,0,0,0,0,1,1,1,,,,,,,,,,,,,,,,,,,,,,,,,,,,,,,,None,,,,,,,,,,,,,,,part100,A,John,Smith,19,Hombre,Estados Unidos,Tucson,Un poco de universidad,inglés,2019_Jun_03_1201,Segmentation,3.0.7,60.05045703599406,
,,,,,,,,,,,,,carrierItem,rosario,permiso,cerliza,ganchillo,culebra,camofa,morbollo,limucna,bolipo,corteta,peseta,joruma,bolsillo,paslolla,garventa,volante,pastilla,pesdeña,moniga,murdallo,joroba,linele,paloma,cereza,rosepio,corbata,camisa,garaje,baldosa,moneda,corura,linterna,cosiba,cenoca,centavo,costilla,culitra,ganquillo,periga,morera,palbira,corona,volpeje,limpieza,casgollo,balbusa,castillo,murmullo,,,,,,,,,,,,,,,,,,,,,,,,,,,0,0,0,0,0,2,2,0,,,,,,,,,,,,,,,,,,,,,,,,,,,,,,,,1,0.5354499580007541,,,,,,,,,,,,,,part100,A,John,Smith,19,Hombre,Estados Unidos,Tucson,Un poco de universidad,inglés,2019_Jun_03_1201,Segmentation,3.0.7,60.05045703599406,
,,,,,,,,,,,,,filleritem2,lenguaje,soltura,moncura,zumbido,sarmiento,neteno,dinona,sobisco,rartanto,bitero,jilguero,cividra,gustillo,devita,cicauco,centeno,cordero,normaso,lisnombre,viztura,tumulto,sociare,gorjeo,sonrisa,cinsecho,bufete,pestillo,polvillo,tortuga,laxante,fimegra,portazo,mipcura,bitena,tornillo,perchero,dosgiente,pificha,canveta,venganza,cecaja,lanzazo,parsida,sobaco,nemeto,zictencia,mortaja,vestuario,,,,,,,,,,,,,,,,,,,,,,,,,,,0,0,0,0,0,3,3,2,,,,,,,,,,,,,,,,,,,,,,,,,,,,,,,,None,,,,,,,,,,,,,,,part100,A,John,Smith,19,Hombre,Estados Unidos,Tucson,Un poco de universidad,inglés,2019_Jun_03_1201,Segmentation,3.0.7,60.05045703599406,
,,,,,,,,,,,,,filleritem4,campiña,solvencia,tovero,portento,tobillo,dedioro,puscalla,fascuna,vifema,nansaso,doncella,banzalla,fundillo,cunceza,numete,gentuza,mordaza,daviba,pargaza,bipero,cintura,taviño,vivero,pancarta,lectorio,pandilla,fondillo,pinchazo,torpeza,salchicha,zuscura,zarpazo,baldeblo,turquma,durmiente,persiana,fantarna,tocensia,nuseto,piltrafa,cicora,vigencia,banfalla,garbanzo,bercillo,cuntefa,luneta,lactancia,,,,,,,,,,,,,,,,,,,,,,,,,,,0,0,0,0,0,4,4,4,,,,,,,,,,,,,,,,,,,,,,,,,,,,,,,,None,,,,,,,,,,,,,,,part100,A,John,Smith,19,Hombre,Estados Unidos,Tucson,Un poco de universidad,inglés,2019_Jun_03_1201,Segmentation,3.0.7,60.05045703599406,
,,,,,,,,,,,,,filleritem6,pileta,gusano,tunsuja,reliquia,tarjeta,tunruja,nacañe,fañeilla,recoltre,delido,laguna,tinneza,rastrillo,mingrago,mufenza,reducto,relente,tutmuja,fernuera,lastadia,piscina,poscallo,cornada,tinglado,fimallo,visillo,suspenso,tendencia,tersura,tufillo,binero,regazo,funclera,midena,viruela,viraje,permaza,tercajo,naverdo,vistazo,simedo,pesquisa,suseña,pozuelo,voltura,soreto,remanso,tapete,,,,,,,,,,,,,,,,,,,,,,,,,,,0,0,0,0,0,5,5,6,,,,,,,,,,,,,,,,,,,,,,,,,,,,,,,,None,,,,,,,,,,,,,,,part100,A,John,Smith,19,Hombre,Estados Unidos,Tucson,Un poco de universidad,inglés,2019_Jun_03_1201,Segmentation,3.0.7,60.05045703599406,
,,,,,,,,,,,,,filleritem3,cambiazo,ginebra,biñena,postigo,verdura,nenedo,sucema,nurese,perdisno,depiaro,gordura,gantarna,remiendo,civillo,nulese,ternura,fogata,bicera,tecillo,cosdura,ventaja,decanro,conducta,sandalia,bimena,palmada,filete,solera,semilla,vislumbre,dulcura,vereda,fivalia,gifema,ruptura,nevera,varime,ciroca,gantina,fastidio,vestolcio,ventisca,ducoste,respuesta,pirijuo,ruñansa,puntilla,poltrona,,,,,,,,,,,,,,,,,,,,,,,,,,,0,0,0,0,0,6,6,3,,,,,,,,,,,,,,,,,,,,,,,,,,,,,,,,None,,,,,,,,,,,,,,,part100,A,John,Smith,19,Hombre,Estados Unidos,Tucson,Un poco de universidad,inglés,2019_Jun_03_1201,Segmentation,3.0.7,60.05045703599406,
,,,,,,,,,,,,,filleritem8,veleta,juguete,fampioza,piragua,tesoro,sutmido,suñuela,reninso,canfleco,vinsenza,duquesa,vendagio,tetilla,duliste,pembanse,recado,gomina,gorente,viltancia,codoro,pupitre,tusorto,cigarra,pomada,talfrado,velorio,ribazo,sopapo,sotana,rapiña,vastimo,tocino,ventoble,lasgüenza,butaca,naranjo,fangurdo,zurdado,tivencio,vejiga,vobita,tisana,deroda,sureste,febago,fontama,rimero,tibieza,,,,,,,,,,,,,,,,,,,,,,,,,,,0,0,0,0,0,7,7,8,,,,,,,,,,,,,,,,,,,,,,,,,,,,,,,,None,,,,,,,,,,,,,,,part100,A,John,Smith,19,Hombre,Estados Unidos,Tucson,Un poco de universidad,inglés,2019_Jun_03_1201,Segmentation,3.0.7,60.05045703599406,
,,,,,,,,,,,,,filleritem5,putada,jactancia,lunino,tortazo,vertiente,sobvondo,cicisa,ferfuera,nundero,tudala,fantoche,piglillo,farola,tecido,tildona,serpiente,mordisco,cabsero,tipallo,civicha,tintero,pospana,fortuna,bolzano,denfiña,bandera,felpudo,mensaje,sortija,lectura,nafiaca,jasmina,venetlo,torsenza,burbuja,barbilla,norita,detnana,zaldizo,pulgada,sinvera,pulsera,sitena,soborno,penvalla,cicaigo,vendaje,vivencia,,,,,,,,,,,,,,,,,,,,,,,,,,,0,0,0,0,0,8,8,5,,,,,,,,,,,,,,,,,,,,,,,,,,,,,,,,None,,,,,,,,,,,,,,,part100,A,John,Smith,19,Hombre,Estados Unidos,Tucson,Un poco de universidad,inglés,2019_Jun_03_1201,Segmentation,3.0.7,60.05045703599406,
,,,,,,,,,,,,,filleritem9,balbina,jinete,tonvanza,rejilla,teniente,fuztancia,punfullo,tenguga,nidero,fivancia,dominio,bimina,jarabe,cubteha,sufiasa,sepulcro,ciruelo,lultame,zuccancia,caljero,bigote,tercega,giralda,gotera,demonto,jaqueca,velero,tiniebla,sonido,barbecho,vuzarda,dureza,bardana,ruspina,ribera,navaja,manvera,sisluño,lisbombre,cilindro,cencera,vinilo,senrera,torija,lercuente,decibio,fineza,pizarra,,,,,,,,,,,,,,,,,,,,,,,,,,,0,0,0,0,0,9,9,9,,,,,,,,,,,,,,,,,,,,,,,,,,,,,,,,None,,,,,,,,,,,,,,,part100,A,John,Smith,19,Hombre,Estados Unidos,Tucson,Un poco de universidad,inglés,2019_Jun_03_1201,Segmentation,3.0.7,60.05045703599406,
,,,,,,,,,,,,,targetSyl,ro,per,cer,gan,cul,cam,mo,li,bol,co,pe,jo,bo,pas,gar,vol,pa,pes,mo,mur,jor,lin,pal,ce,ros,cor,cam,ga,bal,mo,cor,li,cos,ce,cen,co,cu,ga,pe,mor,pa,co,vo,lim,cas,ba,ca,mu,,,,,,,,,,,,,,,,,,,,,,,,,,,0,0,0,0,,,,,,,,,,,,,,,,,,,,,,,,,,,,,,,,,,,,,,,,,,,,,,,,,,,part100,A,John,Smith,19,Hombre,Estados Unidos,Tucson,Un poco de universidad,inglés,2019_Jun_03_1201,Segmentation,3.0.7,60.05045703599406,
,,,,,,,,,,,,,carrierItem,rosario,permiso,cerliza,ganchillo,culebra,camofa,morbollo,limucna,bolipo,corteta,peseta,joruma,bolsillo,paslolla,garventa,volante,pastilla,pesdeña,moniga,murdallo,joroba,linele,paloma,cereza,rosepio,corbata,camisa,garaje,baldosa,moneda,corura,linterna,cosiba,cenoca,centavo,costilla,culitra,ganquillo,periga,morera,palbira,corona,volpeje,limpieza,casgollo,balbusa,castillo,murmullo,,,,,,,,,,,,,,,,,,,,,,,,,,,1,0,1,0,0,0,0,0,,,,,,,,,,,,,,,,,,,,,,,,,,,,,,,,1,0.8861737749994063,,,,,,,,,,,,,,part100,A,John,Smith,19,Hombre,Estados Unidos,Tucson,Un poco de universidad,inglés,2019_Jun_03_1201,Segmentation,3.0.7,60.05045703599406,
,,,,,,,,,,,,,filleritem7,legajo,suceso,noñita,riqueza,fijeza,sunsanso,fensuale,costonche,tecterio,nastallo,jacinto,fuzallo,recato,rizgura,cuntela,tarima,rudeza,talaja,rucilla,siquija,vigilia,tornanga,regata,fajardo,canreza,salero,topacio,cimiento,picota,resabio,puljida,recurso,mifena,tarbenga,lavabo,redada,dipona,berana,vicime,taquilla,donania,bufido,meptrona,barcaza,dilisia,dosbiente,tobera,dolencia,,,,,,,,,,,,,,,,,,,,,,,,,,,1,0,1,0,0,1,1,7,,,,,,,,,,,,,,,,,,,,,,,,,,,,,,,,None,,,,,,,,,,,,,,,part100,A,John,Smith,19,Hombre,Estados Unidos,Tucson,Un poco de universidad,inglés,2019_Jun_03_1201,Segmentation,3.0.7,60.05045703599406,
,,,,,,,,,,,,,filleritem2,lenguaje,soltura,moncura,zumbido,sarmiento,neteno,dinona,sobisco,rartanto,bitero,jilguero,cividra,gustillo,devita,cicauco,centeno,cordero,normaso,lisnombre,viztura,tumulto,sociare,gorjeo,sonrisa,cinsecho,bufete,pestillo,polvillo,tortuga,laxante,fimegra,portazo,mipcura,bitena,tornillo,perchero,dosgiente,pificha,canveta,venganza,cecaja,lanzazo,parsida,sobaco,nemeto,zictencia,mortaja,vestuario,,,,,,,,,,,,,,,,,,,,,,,,,,,1,0,1,0,0,2,2,2,,,,,,,,,,,,,,,,,,,,,,,,,,,,,,,,None,,,,,,,,,,,,,,,part100,A,John,Smith,19,Hombre,Estados Unidos,Tucson,Un poco de universidad,inglés,2019_Jun_03_1201,Segmentation,3.0.7,60.05045703599406,
,,,,,,,,,,,,,filleritem9,balbina,jinete,tonvanza,rejilla,teniente,fuztancia,punfullo,tenguga,nidero,fivancia,dominio,bimina,jarabe,cubteha,sufiasa,sepulcro,ciruelo,lultame,zuccancia,caljero,bigote,tercega,giralda,gotera,demonto,jaqueca,velero,tiniebla,sonido,barbecho,vuzarda,dureza,bardana,ruspina,ribera,navaja,manvera,sisluño,lisbombre,cilindro,cencera,vinilo,senrera,torija,lercuente,decibio,fineza,pizarra,,,,,,,,,,,,,,,,,,,,,,,,,,,1,0,1,0,0,3,3,9,,,,,,,,,,,,,,,,,,,,,,,,,,,,,,,,None,,,,,,,,,,,,,,,part100,A,John,Smith,19,Hombre,Estados Unidos,Tucson,Un poco de universidad,inglés,2019_Jun_03_1201,Segmentation,3.0.7,60.05045703599406,
,,,,,,,,,,,,,filleritem8,veleta,juguete,fampioza,piragua,tesoro,sutmido,suñuela,reninso,canfleco,vinsenza,duquesa,vendagio,tetilla,duliste,pembanse,recado,gomina,gorente,viltancia,codoro,pupitre,tusorto,cigarra,pomada,talfrado,velorio,ribazo,sopapo,sotana,rapiña,vastimo,tocino,ventoble,lasgüenza,butaca,naranjo,fangurdo,zurdado,tivencio,vejiga,vobita,tisana,deroda,sureste,febago,fontama,rimero,tibieza,,,,,,,,,,,,,,,,,,,,,,,,,,,1,0,1,0,0,4,4,8,,,,,,,,,,,,,,,,,,,,,,,,,,,,,,,,None,,,,,,,,,,,,,,,part100,A,John,Smith,19,Hombre,Estados Unidos,Tucson,Un poco de universidad,inglés,2019_Jun_03_1201,Segmentation,3.0.7,60.05045703599406,
,,,,,,,,,,,,,filleritem5,putada,jactancia,lunino,tortazo,vertiente,sobvondo,cicisa,ferfuera,nundero,tudala,fantoche,piglillo,farola,tecido,tildona,serpiente,mordisco,cabsero,tipallo,civicha,tintero,pospana,fortuna,bolzano,denfiña,bandera,felpudo,mensaje,sortija,lectura,nafiaca,jasmina,venetlo,torsenza,burbuja,barbilla,norita,detnana,zaldizo,pulgada,sinvera,pulsera,sitena,soborno,penvalla,cicaigo,vendaje,vivencia,,,,,,,,,,,,,,,,,,,,,,,,,,,1,0,1,0,0,5,5,5,,,,,,,,,,,,,,,,,,,,,,,,,,,,,,,,None,,,,,,,,,,,,,,,part100,A,John,Smith,19,Hombre,Estados Unidos,Tucson,Un poco de universidad,inglés,2019_Jun_03_1201,Segmentation,3.0.7,60.05045703599406,
,,,,,,,,,,,,,filleritem1,pantalla,sandía,vofida,tejado,pintura,depite,cabsiva,poncilla,ricofo,palcillo,langosta,biluesa,narciso,tomida,tulvano,juntura,certeza,docado,hicuila,senena,zancada,parvida,gorguera,tinaja,tidioma,ventana,porfía,lumbrera,renombre,submundo,balzalla,tartana,divona,lirina,talante,zarzuela,nesedo,tifencio,salfrabla,zapato,denciña,bengala,tidencio,portillo,demida,soponso,punzada,testigo,,,,,,,,,,,,,,,,,,,,,,,,,,,1,0,1,0,0,6,6,1,,,,,,,,,,,,,,,,,,,,,,,,,,,,,,,,None,,,,,,,,,,,,,,,part100,A,John,Smith,19,Hombre,Estados Unidos,Tucson,Un poco de universidad,inglés,2019_Jun_03_1201,Segmentation,3.0.7,60.05045703599406,
,,,,,,,,,,,,,filleritem4,campiña,solvencia,tovero,portento,tobillo,dedioro,puscalla,fascuna,vifema,nansaso,doncella,banzalla,fundillo,cunceza,numete,gentuza,mordaza,daviba,pargaza,bipero,cintura,taviño,vivero,pancarta,lectorio,pandilla,fondillo,pinchazo,torpeza,salchicha,zuscura,zarpazo,baldeblo,turquma,durmiente,persiana,fantarna,tocensia,nuseto,piltrafa,cicora,vigencia,banfalla,garbanzo,bercillo,cuntefa,luneta,lactancia,,,,,,,,,,,,,,,,,,,,,,,,,,,1,0,1,0,0,7,7,4,,,,,,,,,,,,,,,,,,,,,,,,,,,,,,,,None,,,,,,,,,,,,,,,part100,A,John,Smith,19,Hombre,Estados Unidos,Tucson,Un poco de universidad,inglés,2019_Jun_03_1201,Segmentation,3.0.7,60.05045703599406,
,,,,,,,,,,,,,filleritem3,cambiazo,ginebra,biñena,postigo,verdura,nenedo,sucema,nurese,perdisno,depiaro,gordura,gantarna,remiendo,civillo,nulese,ternura,fogata,bicera,tecillo,cosdura,ventaja,decanro,conducta,sandalia,bimena,palmada,filete,solera,semilla,vislumbre,dulcura,vereda,fivalia,gifema,ruptura,nevera,varime,ciroca,gantina,fastidio,vestolcio,ventisca,ducoste,respuesta,pirijuo,ruñansa,puntilla,poltrona,,,,,,,,,,,,,,,,,,,,,,,,,,,1,0,1,0,0,8,8,3,,,,,,,,,,,,,,,,,,,,,,,,,,,,,,,,None,,,,,,,,,,,,,,,part100,A,John,Smith,19,Hombre,Estados Unidos,Tucson,Un poco de universidad,inglés,2019_Jun_03_1201,Segmentation,3.0.7,60.05045703599406,
,,,,,,,,,,,,,filleritem6,pileta,gusano,tunsuja,reliquia,tarjeta,tunruja,nacañe,fañeilla,recoltre,delido,laguna,tinneza,rastrillo,mingrago,mufenza,reducto,relente,tutmuja,fernuera,lastadia,piscina,poscallo,cornada,tinglado,fimallo,visillo,suspenso,tendencia,tersura,tufillo,binero,regazo,funclera,midena,viruela,viraje,permaza,tercajo,naverdo,vistazo,simedo,pesquisa,suseña,pozuelo,voltura,soreto,remanso,tapete,,,,,,,,,,,,,,,,,,,,,,,,,,,1,0,1,0,0,9,9,6,,,,,,,,,,,,,,,,,,,,,,,,,,,,,,,,None,,,,,,,,,,,,,,,part100,A,John,Smith,19,Hombre,Estados Unidos,Tucson,Un poco de universidad,inglés,2019_Jun_03_1201,Segmentation,3.0.7,60.05045703599406,
,,,,,,,,,,,,,targetSyl,ro,per,cer,gan,cul,cam,mo,li,bol,co,pe,jo,bo,pas,gar,vol,pa,pes,mo,mur,jor,lin,pal,ce,ros,cor,cam,ga,bal,mo,cor,li,cos,ce,cen,co,cu,ga,pe,mor,pa,co,vo,lim,cas,ba,ca,mu,,,,,,,,,,,,,,,,,,,,,,,,,,,1,0,1,0,,,,,,,,,,,,,,,,,,,,,,,,,,,,,,,,,,,,,,,,,,,,,,,,,,,part100,A,John,Smith,19,Hombre,Estados Unidos,Tucson,Un poco de universidad,inglés,2019_Jun_03_1201,Segmentation,3.0.7,60.05045703599406,
,,,,,,,,,,,,,filleritem9,balbina,jinete,tonvanza,rejilla,teniente,fuztancia,punfullo,tenguga,nidero,fivancia,dominio,bimina,jarabe,cubteha,sufiasa,sepulcro,ciruelo,lultame,zuccancia,caljero,bigote,tercega,giralda,gotera,demonto,jaqueca,velero,tiniebla,sonido,barbecho,vuzarda,dureza,bardana,ruspina,ribera,navaja,manvera,sisluño,lisbombre,cilindro,cencera,vinilo,senrera,torija,lercuente,decibio,fineza,pizarra,,,,,,,,,,,,,,,,,,,,,,,,,,,2,0,2,0,0,0,0,9,,,,,,,,,,,,,,,,,,,,,,,,,,,,,,,,None,,,,,,,,,,,,,,,part100,A,John,Smith,19,Hombre,Estados Unidos,Tucson,Un poco de universidad,inglés,2019_Jun_03_1201,Segmentation,3.0.7,60.05045703599406,
,,,,,,,,,,,,,filleritem4,campiña,solvencia,tovero,portento,tobillo,dedioro,puscalla,fascuna,vifema,nansaso,doncella,banzalla,fundillo,cunceza,numete,gentuza,mordaza,daviba,pargaza,bipero,cintura,taviño,vivero,pancarta,lectorio,pandilla,fondillo,pinchazo,torpeza,salchicha,zuscura,zarpazo,baldeblo,turquma,durmiente,persiana,fantarna,tocensia,nuseto,piltrafa,cicora,vigencia,banfalla,garbanzo,bercillo,cuntefa,luneta,lactancia,,,,,,,,,,,,,,,,,,,,,,,,,,,2,0,2,0,0,1,1,4,,,,,,,,,,,,,,,,,,,,,,,,,,,,,,,,None,,,,,,,,,,,,,,,part100,A,John,Smith,19,Hombre,Estados Unidos,Tucson,Un poco de universidad,inglés,2019_Jun_03_1201,Segmentation,3.0.7,60.05045703599406,
,,,,,,,,,,,,,filleritem8,veleta,juguete,fampioza,piragua,tesoro,sutmido,suñuela,reninso,canfleco,vinsenza,duquesa,vendagio,tetilla,duliste,pembanse,recado,gomina,gorente,viltancia,codoro,pupitre,tusorto,cigarra,pomada,talfrado,velorio,ribazo,sopapo,sotana,rapiña,vastimo,tocino,ventoble,lasgüenza,butaca,naranjo,fangurdo,zurdado,tivencio,vejiga,vobita,tisana,deroda,sureste,febago,fontama,rimero,tibieza,,,,,,,,,,,,,,,,,,,,,,,,,,,2,0,2,0,0,2,2,8,,,,,,,,,,,,,,,,,,,,,,,,,,,,,,,,None,,,,,,,,,,,,,,,part100,A,John,Smith,19,Hombre,Estados Unidos,Tucson,Un poco de universidad,inglés,2019_Jun_03_1201,Segmentation,3.0.7,60.05045703599406,
,,,,,,,,,,,,,carrierItem,rosario,permiso,cerliza,ganchillo,culebra,camofa,morbollo,limucna,bolipo,corteta,peseta,joruma,bolsillo,paslolla,garventa,volante,pastilla,pesdeña,moniga,murdallo,joroba,linele,paloma,cereza,rosepio,corbata,camisa,garaje,baldosa,moneda,corura,linterna,cosiba,cenoca,centavo,costilla,culitra,ganquillo,periga,morera,palbira,corona,volpeje,limpieza,casgollo,balbusa,castillo,murmullo,,,,,,,,,,,,,,,,,,,,,,,,,,,2,0,2,0,0,3,3,0,,,,,,,,,,,,,,,,,,,,,,,,,,,,,,,,1,1.6494794940008433,,,,,,,,,,,,,,part100,A,John,Smith,19,Hombre,Estados Unidos,Tucson,Un poco de universidad,inglés,2019_Jun_03_1201,Segmentation,3.0.7,60.05045703599406,
,,,,,,,,,,,,,filleritem1,pantalla,sandía,vofida,tejado,pintura,depite,cabsiva,poncilla,ricofo,palcillo,langosta,biluesa,narciso,tomida,tulvano,juntura,certeza,docado,hicuila,senena,zancada,parvida,gorguera,tinaja,tidioma,ventana,porfía,lumbrera,renombre,submundo,balzalla,tartana,divona,lirina,talante,zarzuela,nesedo,tifencio,salfrabla,zapato,denciña,bengala,tidencio,portillo,demida,soponso,punzada,testigo,,,,,,,,,,,,,,,,,,,,,,,,,,,2,0,2,0,0,4,4,1,,,,,,,,,,,,,,,,,,,,,,,,,,,,,,,,None,,,,,,,,,,,,,,,part100,A,John,Smith,19,Hombre,Estados Unidos,Tucson,Un poco de universidad,inglés,2019_Jun_03_1201,Segmentation,3.0.7,60.05045703599406,
,,,,,,,,,,,,,filleritem6,pileta,gusano,tunsuja,reliquia,tarjeta,tunruja,nacañe,fañeilla,recoltre,delido,laguna,tinneza,rastrillo,mingrago,mufenza,reducto,relente,tutmuja,fernuera,lastadia,piscina,poscallo,cornada,tinglado,fimallo,visillo,suspenso,tendencia,tersura,tufillo,binero,regazo,funclera,midena,viruela,viraje,permaza,tercajo,naverdo,vistazo,simedo,pesquisa,suseña,pozuelo,voltura,soreto,remanso,tapete,,,,,,,,,,,,,,,,,,,,,,,,,,,2,0,2,0,0,5,5,6,,,,,,,,,,,,,,,,,,,,,,,,,,,,,,,,None,,,,,,,,,,,,,,,part100,A,John,Smith,19,Hombre,Estados Unidos,Tucson,Un poco de universidad,inglés,2019_Jun_03_1201,Segmentation,3.0.7,60.05045703599406,
,,,,,,,,,,,,,filleritem7,legajo,suceso,noñita,riqueza,fijeza,sunsanso,fensuale,costonche,tecterio,nastallo,jacinto,fuzallo,recato,rizgura,cuntela,tarima,rudeza,talaja,rucilla,siquija,vigilia,tornanga,regata,fajardo,canreza,salero,topacio,cimiento,picota,resabio,puljida,recurso,mifena,tarbenga,lavabo,redada,dipona,berana,vicime,taquilla,donania,bufido,meptrona,barcaza,dilisia,dosbiente,tobera,dolencia,,,,,,,,,,,,,,,,,,,,,,,,,,,2,0,2,0,0,6,6,7,,,,,,,,,,,,,,,,,,,,,,,,,,,,,,,,None,,,,,,,,,,,,,,,part100,A,John,Smith,19,Hombre,Estados Unidos,Tucson,Un poco de universidad,inglés,2019_Jun_03_1201,Segmentation,3.0.7,60.05045703599406,
,,,,,,,,,,,,,filleritem2,lenguaje,soltura,moncura,zumbido,sarmiento,neteno,dinona,sobisco,rartanto,bitero,jilguero,cividra,gustillo,devita,cicauco,centeno,cordero,normaso,lisnombre,viztura,tumulto,sociare,gorjeo,sonrisa,cinsecho,bufete,pestillo,polvillo,tortuga,laxante,fimegra,portazo,mipcura,bitena,tornillo,perchero,dosgiente,pificha,canveta,venganza,cecaja,lanzazo,parsida,sobaco,nemeto,zictencia,mortaja,vestuario,,,,,,,,,,,,,,,,,,,,,,,,,,,2,0,2,0,0,7,7,2,,,,,,,,,,,,,,,,,,,,,,,,,,,,,,,,None,,,,,,,,,,,,,,,part100,A,John,Smith,19,Hombre,Estados Unidos,Tucson,Un poco de universidad,inglés,2019_Jun_03_1201,Segmentation,3.0.7,60.05045703599406,
,,,,,,,,,,,,,filleritem3,cambiazo,ginebra,biñena,postigo,verdura,nenedo,sucema,nurese,perdisno,depiaro,gordura,gantarna,remiendo,civillo,nulese,ternura,fogata,bicera,tecillo,cosdura,ventaja,decanro,conducta,sandalia,bimena,palmada,filete,solera,semilla,vislumbre,dulcura,vereda,fivalia,gifema,ruptura,nevera,varime,ciroca,gantina,fastidio,vestolcio,ventisca,ducoste,respuesta,pirijuo,ruñansa,puntilla,poltrona,,,,,,,,,,,,,,,,,,,,,,,,,,,2,0,2,0,0,8,8,3,,,,,,,,,,,,,,,,,,,,,,,,,,,,,,,,None,,,,,,,,,,,,,,,part100,A,John,Smith,19,Hombre,Estados Unidos,Tucson,Un poco de universidad,inglés,2019_Jun_03_1201,Segmentation,3.0.7,60.05045703599406,
,,,,,,,,,,,,,filleritem5,putada,jactancia,lunino,tortazo,vertiente,sobvondo,cicisa,ferfuera,nundero,tudala,fantoche,piglillo,farola,tecido,tildona,serpiente,mordisco,cabsero,tipallo,civicha,tintero,pospana,fortuna,bolzano,denfiña,bandera,felpudo,mensaje,sortija,lectura,nafiaca,jasmina,venetlo,torsenza,burbuja,barbilla,norita,detnana,zaldizo,pulgada,sinvera,pulsera,sitena,soborno,penvalla,cicaigo,vendaje,vivencia,,,,,,,,,,,,,,,,,,,,,,,,,,,2,0,2,0,0,9,9,5,,,,,,,,,,,,,,,,,,,,,,,,,,,,,,,,None,,,,,,,,,,,,,,,part100,A,John,Smith,19,Hombre,Estados Unidos,Tucson,Un poco de universidad,inglés,2019_Jun_03_1201,Segmentation,3.0.7,60.05045703599406,
,,,,,,,,,,,,,targetSyl,ro,per,cer,gan,cul,cam,mo,li,bol,co,pe,jo,bo,pas,gar,vol,pa,pes,mo,mur,jor,lin,pal,ce,ros,cor,cam,ga,bal,mo,cor,li,cos,ce,cen,co,cu,ga,pe,mor,pa,co,vo,lim,cas,ba,ca,mu,,,,,,,,,,,,,,,,,,,,,,,,,,,2,0,2,0,,,,,,,,,,,,,,,,,,,,,,,,,,,,,,,,,,,,,,,,,,,,,,,,,,,part100,A,John,Smith,19,Hombre,Estados Unidos,Tucson,Un poco de universidad,inglés,2019_Jun_03_1201,Segmentation,3.0.7,60.05045703599406,
,,,,,,,,,,,,,filleritem2,lenguaje,soltura,moncura,zumbido,sarmiento,neteno,dinona,sobisco,rartanto,bitero,jilguero,cividra,gustillo,devita,cicauco,centeno,cordero,normaso,lisnombre,viztura,tumulto,sociare,gorjeo,sonrisa,cinsecho,bufete,pestillo,polvillo,tortuga,laxante,fimegra,portazo,mipcura,bitena,tornillo,perchero,dosgiente,pificha,canveta,venganza,cecaja,lanzazo,parsida,sobaco,nemeto,zictencia,mortaja,vestuario,,,,,,,,,,,,,,,,,,,,,,,,,,,3,0,3,0,0,0,0,2,,,,,,,,,,,,,,,,,,,,,,,,,,,,,,,,None,,,,,,,,,,,,,,,part100,A,John,Smith,19,Hombre,Estados Unidos,Tucson,Un poco de universidad,inglés,2019_Jun_03_1201,Segmentation,3.0.7,60.05045703599406,
,,,,,,,,,,,,,filleritem3,cambiazo,ginebra,biñena,postigo,verdura,nenedo,sucema,nurese,perdisno,depiaro,gordura,gantarna,remiendo,civillo,nulese,ternura,fogata,bicera,tecillo,cosdura,ventaja,decanro,conducta,sandalia,bimena,palmada,filete,solera,semilla,vislumbre,dulcura,vereda,fivalia,gifema,ruptura,nevera,varime,ciroca,gantina,fastidio,vestolcio,ventisca,ducoste,respuesta,pirijuo,ruñansa,puntilla,poltrona,,,,,,,,,,,,,,,,,,,,,,,,,,,3,0,3,0,0,1,1,3,,,,,,,,,,,,,,,,,,,,,,,,,,,,,,,,None,,,,,,,,,,,,,,,part100,A,John,Smith,19,Hombre,Estados Unidos,Tucson,Un poco de universidad,inglés,2019_Jun_03_1201,Segmentation,3.0.7,60.05045703599406,
,,,,,,,,,,,,,filleritem1,pantalla,sandía,vofida,tejado,pintura,depite,cabsiva,poncilla,ricofo,palcillo,langosta,biluesa,narciso,tomida,tulvano,juntura,certeza,docado,hicuila,senena,zancada,parvida,gorguera,tinaja,tidioma,ventana,porfía,lumbrera,renombre,submundo,balzalla,tartana,divona,lirina,talante,zarzuela,nesedo,tifencio,salfrabla,zapato,denciña,bengala,tidencio,portillo,demida,soponso,punzada,testigo,,,,,,,,,,,,,,,,,,,,,,,,,,,3,0,3,0,0,2,2,1,,,,,,,,,,,,,,,,,,,,,,,,,,,,,,,,None,,,,,,,,,,,,,,,part100,A,John,Smith,19,Hombre,Estados Unidos,Tucson,Un poco de universidad,inglés,2019_Jun_03_1201,Segmentation,3.0.7,60.05045703599406,
,,,,,,,,,,,,,filleritem4,campiña,solvencia,tovero,portento,tobillo,dedioro,puscalla,fascuna,vifema,nansaso,doncella,banzalla,fundillo,cunceza,numete,gentuza,mordaza,daviba,pargaza,bipero,cintura,taviño,vivero,pancarta,lectorio,pandilla,fondillo,pinchazo,torpeza,salchicha,zuscura,zarpazo,baldeblo,turquma,durmiente,persiana,fantarna,tocensia,nuseto,piltrafa,cicora,vigencia,banfalla,garbanzo,bercillo,cuntefa,luneta,lactancia,,,,,,,,,,,,,,,,,,,,,,,,,,,3,0,3,0,0,3,3,4,,,,,,,,,,,,,,,,,,,,,,,,,,,,,,,,None,,,,,,,,,,,,,,,part100,A,John,Smith,19,Hombre,Estados Unidos,Tucson,Un poco de universidad,inglés,2019_Jun_03_1201,Segmentation,3.0.7,60.05045703599406,
,,,,,,,,,,,,,filleritem7,legajo,suceso,noñita,riqueza,fijeza,sunsanso,fensuale,costonche,tecterio,nastallo,jacinto,fuzallo,recato,rizgura,cuntela,tarima,rudeza,talaja,rucilla,siquija,vigilia,tornanga,regata,fajardo,canreza,salero,topacio,cimiento,picota,resabio,puljida,recurso,mifena,tarbenga,lavabo,redada,dipona,berana,vicime,taquilla,donania,bufido,meptrona,barcaza,dilisia,dosbiente,tobera,dolencia,,,,,,,,,,,,,,,,,,,,,,,,,,,3,0,3,0,0,4,4,7,,,,,,,,,,,,,,,,,,,,,,,,,,,,,,,,None,,,,,,,,,,,,,,,part100,A,John,Smith,19,Hombre,Estados Unidos,Tucson,Un poco de universidad,inglés,2019_Jun_03_1201,Segmentation,3.0.7,60.05045703599406,
,,,,,,,,,,,,,filleritem9,balbina,jinete,tonvanza,rejilla,teniente,fuztancia,punfullo,tenguga,nidero,fivancia,dominio,bimina,jarabe,cubteha,sufiasa,sepulcro,ciruelo,lultame,zuccancia,caljero,bigote,tercega,giralda,gotera,demonto,jaqueca,velero,tiniebla,sonido,barbecho,vuzarda,dureza,bardana,ruspina,ribera,navaja,manvera,sisluño,lisbombre,cilindro,cencera,vinilo,senrera,torija,lercuente,decibio,fineza,pizarra,,,,,,,,,,,,,,,,,,,,,,,,,,,3,0,3,0,0,5,5,9,,,,,,,,,,,,,,,,,,,,,,,,,,,,,,,,None,,,,,,,,,,,,,,,part100,A,John,Smith,19,Hombre,Estados Unidos,Tucson,Un poco de universidad,inglés,2019_Jun_03_1201,Segmentation,3.0.7,60.05045703599406,
,,,,,,,,,,,,,filleritem6,pileta,gusano,tunsuja,reliquia,tarjeta,tunruja,nacañe,fañeilla,recoltre,delido,laguna,tinneza,rastrillo,mingrago,mufenza,reducto,relente,tutmuja,fernuera,lastadia,piscina,poscallo,cornada,tinglado,fimallo,visillo,suspenso,tendencia,tersura,tufillo,binero,regazo,funclera,midena,viruela,viraje,permaza,tercajo,naverdo,vistazo,simedo,pesquisa,suseña,pozuelo,voltura,soreto,remanso,tapete,,,,,,,,,,,,,,,,,,,,,,,,,,,3,0,3,0,0,6,6,6,,,,,,,,,,,,,,,,,,,,,,,,,,,,,,,,None,,,,,,,,,,,,,,,part100,A,John,Smith,19,Hombre,Estados Unidos,Tucson,Un poco de universidad,inglés,2019_Jun_03_1201,Segmentation,3.0.7,60.05045703599406,
,,,,,,,,,,,,,filleritem8,veleta,juguete,fampioza,piragua,tesoro,sutmido,suñuela,reninso,canfleco,vinsenza,duquesa,vendagio,tetilla,duliste,pembanse,recado,gomina,gorente,viltancia,codoro,pupitre,tusorto,cigarra,pomada,talfrado,velorio,ribazo,sopapo,sotana,rapiña,vastimo,tocino,ventoble,lasgüenza,butaca,naranjo,fangurdo,zurdado,tivencio,vejiga,vobita,tisana,deroda,sureste,febago,fontama,rimero,tibieza,,,,,,,,,,,,,,,,,,,,,,,,,,,3,0,3,0,0,7,7,8,,,,,,,,,,,,,,,,,,,,,,,,,,,,,,,,None,,,,,,,,,,,,,,,part100,A,John,Smith,19,Hombre,Estados Unidos,Tucson,Un poco de universidad,inglés,2019_Jun_03_1201,Segmentation,3.0.7,60.05045703599406,
,,,,,,,,,,,,,filleritem5,putada,jactancia,lunino,tortazo,vertiente,sobvondo,cicisa,ferfuera,nundero,tudala,fantoche,piglillo,farola,tecido,tildona,serpiente,mordisco,cabsero,tipallo,civicha,tintero,pospana,fortuna,bolzano,denfiña,bandera,felpudo,mensaje,sortija,lectura,nafiaca,jasmina,venetlo,torsenza,burbuja,barbilla,norita,detnana,zaldizo,pulgada,sinvera,pulsera,sitena,soborno,penvalla,cicaigo,vendaje,vivencia,,,,,,,,,,,,,,,,,,,,,,,,,,,3,0,3,0,0,8,8,5,,,,,,,,,,,,,,,,,,,,,,,,,,,,,,,,None,,,,,,,,,,,,,,,part100,A,John,Smith,19,Hombre,Estados Unidos,Tucson,Un poco de universidad,inglés,2019_Jun_03_1201,Segmentation,3.0.7,60.05045703599406,
,,,,,,,,,,,,,carrierItem,rosario,permiso,cerliza,ganchillo,culebra,camofa,morbollo,limucna,bolipo,corteta,peseta,joruma,bolsillo,paslolla,garventa,volante,pastilla,pesdeña,moniga,murdallo,joroba,linele,paloma,cereza,rosepio,corbata,camisa,garaje,baldosa,moneda,corura,linterna,cosiba,cenoca,centavo,costilla,culitra,ganquillo,periga,morera,palbira,corona,volpeje,limpieza,casgollo,balbusa,castillo,murmullo,,,,,,,,,,,,,,,,,,,,,,,,,,,3,0,3,0,0,9,9,0,,,,,,,,,,,,,,,,,,,,,,,,,,,,,,,,1,0.531847251999352,,,,,,,,,,,,,,part100,A,John,Smith,19,Hombre,Estados Unidos,Tucson,Un poco de universidad,inglés,2019_Jun_03_1201,Segmentation,3.0.7,60.05045703599406,
,,,,,,,,,,,,,targetSyl,ro,per,cer,gan,cul,cam,mo,li,bol,co,pe,jo,bo,pas,gar,vol,pa,pes,mo,mur,jor,lin,pal,ce,ros,cor,cam,ga,bal,mo,cor,li,cos,ce,cen,co,cu,ga,pe,mor,pa,co,vo,lim,cas,ba,ca,mu,,,,,,,,,,,,,,,,,,,,,,,,,,,3,0,3,0,,,,,,,,,,,,,,,,,,,,,,,,,,,,,,,,,,,,,,,,,,,,,,,,,,,part100,A,John,Smith,19,Hombre,Estados Unidos,Tucson,Un poco de universidad,inglés,2019_Jun_03_1201,Segmentation,3.0.7,60.05045703599406,
,,,,,,,,,,,,,filleritem8,veleta,juguete,fampioza,piragua,tesoro,sutmido,suñuela,reninso,canfleco,vinsenza,duquesa,vendagio,tetilla,duliste,pembanse,recado,gomina,gorente,viltancia,codoro,pupitre,tusorto,cigarra,pomada,talfrado,velorio,ribazo,sopapo,sotana,rapiña,vastimo,tocino,ventoble,lasgüenza,butaca,naranjo,fangurdo,zurdado,tivencio,vejiga,vobita,tisana,deroda,sureste,febago,fontama,rimero,tibieza,,,,,,,,,,,,,,,,,,,,,,,,,,,4,0,4,0,0,0,0,8,,,,,,,,,,,,,,,,,,,,,,,,,,,,,,,,None,,,,,,,,,,,,,,,part100,A,John,Smith,19,Hombre,Estados Unidos,Tucson,Un poco de universidad,inglés,2019_Jun_03_1201,Segmentation,3.0.7,60.05045703599406,
,,,,,,,,,,,,,filleritem3,cambiazo,ginebra,biñena,postigo,verdura,nenedo,sucema,nurese,perdisno,depiaro,gordura,gantarna,remiendo,civillo,nulese,ternura,fogata,bicera,tecillo,cosdura,ventaja,decanro,conducta,sandalia,bimena,palmada,filete,solera,semilla,vislumbre,dulcura,vereda,fivalia,gifema,ruptura,nevera,varime,ciroca,gantina,fastidio,vestolcio,ventisca,ducoste,respuesta,pirijuo,ruñansa,puntilla,poltrona,,,,,,,,,,,,,,,,,,,,,,,,,,,4,0,4,0,0,1,1,3,,,,,,,,,,,,,,,,,,,,,,,,,,,,,,,,None,,,,,,,,,,,,,,,part100,A,John,Smith,19,Hombre,Estados Unidos,Tucson,Un poco de universidad,inglés,2019_Jun_03_1201,Segmentation,3.0.7,60.05045703599406,
,,,,,,,,,,,,,filleritem9,balbina,jinete,tonvanza,rejilla,teniente,fuztancia,punfullo,tenguga,nidero,fivancia,dominio,bimina,jarabe,cubteha,sufiasa,sepulcro,ciruelo,lultame,zuccancia,caljero,bigote,tercega,giralda,gotera,demonto,jaqueca,velero,tiniebla,sonido,barbecho,vuzarda,dureza,bardana,ruspina,ribera,navaja,manvera,sisluño,lisbombre,cilindro,cencera,vinilo,senrera,torija,lercuente,decibio,fineza,pizarra,,,,,,,,,,,,,,,,,,,,,,,,,,,4,0,4,0,0,2,2,9,,,,,,,,,,,,,,,,,,,,,,,,,,,,,,,,None,,,,,,,,,,,,,,,part100,A,John,Smith,19,Hombre,Estados Unidos,Tucson,Un poco de universidad,inglés,2019_Jun_03_1201,Segmentation,3.0.7,60.05045703599406,
,,,,,,,,,,,,,filleritem4,campiña,solvencia,tovero,portento,tobillo,dedioro,puscalla,fascuna,vifema,nansaso,doncella,banzalla,fundillo,cunceza,numete,gentuza,mordaza,daviba,pargaza,bipero,cintura,taviño,vivero,pancarta,lectorio,pandilla,fondillo,pinchazo,torpeza,salchicha,zuscura,zarpazo,baldeblo,turquma,durmiente,persiana,fantarna,tocensia,nuseto,piltrafa,cicora,vigencia,banfalla,garbanzo,bercillo,cuntefa,luneta,lactancia,,,,,,,,,,,,,,,,,,,,,,,,,,,4,0,4,0,0,3,3,4,,,,,,,,,,,,,,,,,,,,,,,,,,,,,,,,None,,,,,,,,,,,,,,,part100,A,John,Smith,19,Hombre,Estados Unidos,Tucson,Un poco de universidad,inglés,2019_Jun_03_1201,Segmentation,3.0.7,60.05045703599406,
,,,,,,,,,,,,,filleritem1,pantalla,sandía,vofida,tejado,pintura,depite,cabsiva,poncilla,ricofo,palcillo,langosta,biluesa,narciso,tomida,tulvano,juntura,certeza,docado,hicuila,senena,zancada,parvida,gorguera,tinaja,tidioma,ventana,porfía,lumbrera,renombre,submundo,balzalla,tartana,divona,lirina,talante,zarzuela,nesedo,tifencio,salfrabla,zapato,denciña,bengala,tidencio,portillo,demida,soponso,punzada,testigo,,,,,,,,,,,,,,,,,,,,,,,,,,,4,0,4,0,0,4,4,1,,,,,,,,,,,,,,,,,,,,,,,,,,,,,,,,None,,,,,,,,,,,,,,,part100,A,John,Smith,19,Hombre,Estados Unidos,Tucson,Un poco de universidad,inglés,2019_Jun_03_1201,Segmentation,3.0.7,60.05045703599406,
,,,,,,,,,,,,,carrierItem,rosario,permiso,cerliza,ganchillo,culebra,camofa,morbollo,limucna,bolipo,corteta,peseta,joruma,bolsillo,paslolla,garventa,volante,pastilla,pesdeña,moniga,murdallo,joroba,linele,paloma,cereza,rosepio,corbata,camisa,garaje,baldosa,moneda,corura,linterna,cosiba,cenoca,centavo,costilla,culitra,ganquillo,periga,morera,palbira,corona,volpeje,limpieza,casgollo,balbusa,castillo,murmullo,,,,,,,,,,,,,,,,,,,,,,,,,,,4,0,4,0,0,5,5,0,,,,,,,,,,,,,,,,,,,,,,,,,,,,,,,,1,0.83478801199999,,,,,,,,,,,,,,part100,A,John,Smith,19,Hombre,Estados Unidos,Tucson,Un poco de universidad,inglés,2019_Jun_03_1201,Segmentation,3.0.7,60.05045703599406,
,,,,,,,,,,,,,filleritem7,legajo,suceso,noñita,riqueza,fijeza,sunsanso,fensuale,costonche,tecterio,nastallo,jacinto,fuzallo,recato,rizgura,cuntela,tarima,rudeza,talaja,rucilla,siquija,vigilia,tornanga,regata,fajardo,canreza,salero,topacio,cimiento,picota,resabio,puljida,recurso,mifena,tarbenga,lavabo,redada,dipona,berana,vicime,taquilla,donania,bufido,meptrona,barcaza,dilisia,dosbiente,tobera,dolencia,,,,,,,,,,,,,,,,,,,,,,,,,,,4,0,4,0,0,6,6,7,,,,,,,,,,,,,,,,,,,,,,,,,,,,,,,,None,,,,,,,,,,,,,,,part100,A,John,Smith,19,Hombre,Estados Unidos,Tucson,Un poco de universidad,inglés,2019_Jun_03_1201,Segmentation,3.0.7,60.05045703599406,
,,,,,,,,,,,,,filleritem2,lenguaje,soltura,moncura,zumbido,sarmiento,neteno,dinona,sobisco,rartanto,bitero,jilguero,cividra,gustillo,devita,cicauco,centeno,cordero,normaso,lisnombre,viztura,tumulto,sociare,gorjeo,sonrisa,cinsecho,bufete,pestillo,polvillo,tortuga,laxante,fimegra,portazo,mipcura,bitena,tornillo,perchero,dosgiente,pificha,canveta,venganza,cecaja,lanzazo,parsida,sobaco,nemeto,zictencia,mortaja,vestuario,,,,,,,,,,,,,,,,,,,,,,,,,,,4,0,4,0,0,7,7,2,,,,,,,,,,,,,,,,,,,,,,,,,,,,,,,,None,,,,,,,,,,,,,,,part100,A,John,Smith,19,Hombre,Estados Unidos,Tucson,Un poco de universidad,inglés,2019_Jun_03_1201,Segmentation,3.0.7,60.05045703599406,
,,,,,,,,,,,,,filleritem5,putada,jactancia,lunino,tortazo,vertiente,sobvondo,cicisa,ferfuera,nundero,tudala,fantoche,piglillo,farola,tecido,tildona,serpiente,mordisco,cabsero,tipallo,civicha,tintero,pospana,fortuna,bolzano,denfiña,bandera,felpudo,mensaje,sortija,lectura,nafiaca,jasmina,venetlo,torsenza,burbuja,barbilla,norita,detnana,zaldizo,pulgada,sinvera,pulsera,sitena,soborno,penvalla,cicaigo,vendaje,vivencia,,,,,,,,,,,,,,,,,,,,,,,,,,,4,0,4,0,0,8,8,5,,,,,,,,,,,,,,,,,,,,,,,,,,,,,,,,None,,,,,,,,,,,,,,,part100,A,John,Smith,19,Hombre,Estados Unidos,Tucson,Un poco de universidad,inglés,2019_Jun_03_1201,Segmentation,3.0.7,60.05045703599406,
,,,,,,,,,,,,,filleritem6,pileta,gusano,tunsuja,reliquia,tarjeta,tunruja,nacañe,fañeilla,recoltre,delido,laguna,tinneza,rastrillo,mingrago,mufenza,reducto,relente,tutmuja,fernuera,lastadia,piscina,poscallo,cornada,tinglado,fimallo,visillo,suspenso,tendencia,tersura,tufillo,binero,regazo,funclera,midena,viruela,viraje,permaza,tercajo,naverdo,vistazo,simedo,pesquisa,suseña,pozuelo,voltura,soreto,remanso,tapete,,,,,,,,,,,,,,,,,,,,,,,,,,,4,0,4,0,0,9,9,6,,,,,,,,,,,,,,,,,,,,,,,,,,,,,,,,None,,,,,,,,,,,,,,,part100,A,John,Smith,19,Hombre,Estados Unidos,Tucson,Un poco de universidad,inglés,2019_Jun_03_1201,Segmentation,3.0.7,60.05045703599406,
,,,,,,,,,,,,,targetSyl,ro,per,cer,gan,cul,cam,mo,li,bol,co,pe,jo,bo,pas,gar,vol,pa,pes,mo,mur,jor,lin,pal,ce,ros,cor,cam,ga,bal,mo,cor,li,cos,ce,cen,co,cu,ga,pe,mor,pa,co,vo,lim,cas,ba,ca,mu,,,,,,,,,,,,,,,,,,,,,,,,,,,4,0,4,0,,,,,,,,,,,,,,,,,,,,,,,,,,,,,,,,,,,,,,,,,,,,,,,,,,,part100,A,John,Smith,19,Hombre,Estados Unidos,Tucson,Un poco de universidad,inglés,2019_Jun_03_1201,Segmentation,3.0.7,60.05045703599406,
,,,,,,,,,,,,,filleritem4,campiña,solvencia,tovero,portento,tobillo,dedioro,puscalla,fascuna,vifema,nansaso,doncella,banzalla,fundillo,cunceza,numete,gentuza,mordaza,daviba,pargaza,bipero,cintura,taviño,vivero,pancarta,lectorio,pandilla,fondillo,pinchazo,torpeza,salchicha,zuscura,zarpazo,baldeblo,turquma,durmiente,persiana,fantarna,tocensia,nuseto,piltrafa,cicora,vigencia,banfalla,garbanzo,bercillo,cuntefa,luneta,lactancia,,,,,,,,,,,,,,,,,,,,,,,,,,,5,0,5,0,0,0,0,4,,,,,,,,,,,,,,,,,,,,,,,,,,,,,,,,None,,,,,,,,,,,,,,,part100,A,John,Smith,19,Hombre,Estados Unidos,Tucson,Un poco de universidad,inglés,2019_Jun_03_1201,Segmentation,3.0.7,60.05045703599406,
,,,,,,,,,,,,,filleritem3,cambiazo,ginebra,biñena,postigo,verdura,nenedo,sucema,nurese,perdisno,depiaro,gordura,gantarna,remiendo,civillo,nulese,ternura,fogata,bicera,tecillo,cosdura,ventaja,decanro,conducta,sandalia,bimena,palmada,filete,solera,semilla,vislumbre,dulcura,vereda,fivalia,gifema,ruptura,nevera,varime,ciroca,gantina,fastidio,vestolcio,ventisca,ducoste,respuesta,pirijuo,ruñansa,puntilla,poltrona,,,,,,,,,,,,,,,,,,,,,,,,,,,5,0,5,0,0,1,1,3,,,,,,,,,,,,,,,,,,,,,,,,,,,,,,,,None,,,,,,,,,,,,,,,part100,A,John,Smith,19,Hombre,Estados Unidos,Tucson,Un poco de universidad,inglés,2019_Jun_03_1201,Segmentation,3.0.7,60.05045703599406,
,,,,,,,,,,,,,carrierItem,rosario,permiso,cerliza,ganchillo,culebra,camofa,morbollo,limucna,bolipo,corteta,peseta,joruma,bolsillo,paslolla,garventa,volante,pastilla,pesdeña,moniga,murdallo,joroba,linele,paloma,cereza,rosepio,corbata,camisa,garaje,baldosa,moneda,corura,linterna,cosiba,cenoca,centavo,costilla,culitra,ganquillo,periga,morera,palbira,corona,volpeje,limpieza,casgollo,balbusa,castillo,murmullo,,,,,,,,,,,,,,,,,,,,,,,,,,,5,0,5,0,0,2,2,0,,,,,,,,,,,,,,,,,,,,,,,,,,,,,,,,1,0.7023765060002916,,,,,,,,,,,,,,part100,A,John,Smith,19,Hombre,Estados Unidos,Tucson,Un poco de universidad,inglés,2019_Jun_03_1201,Segmentation,3.0.7,60.05045703599406,
