practiceListA,practiceListA0,practiceListA1,practiceListA2,practiceListA3,practiceListA4,practiceListA5,practiceListA6,practiceListA7,conditionA,stimuliListA0,stimuliListA1,stimuliListA2,stimuliListA3,stimuliListA4,stimuliListA5,stimuliListA6,stimuliListA7,stimuliListA8,stimuliListA9,stimuliListA10,stimuliListA11,stimuliListA12,stimuliListA13,stimuliListA14,stimuliListA15,stimuliListA16,stimuliListA17,stimuliListA18,stimuliListA19,stimuliListA20,stimuliListA21,stimuliListA22,stimuliListA23,stimuliListA24,stimuliListA25,stimuliListA26,stimuliListA27,stimuliListA28,stimuliListA29,stimuliListA30,stimuliListA31,stimuliListA32,stimuliListA33,stimuliListA34,stimuliListA35,stimuliListA36,stimuliListA37,stimuliListA38,stimuliListA39,stimuliListA40,stimuliListA41,stimuliListA42,stimuliListA43,stimuliListA44,stimuliListA45,stimuliListA46,stimuliListA47,syllabification,corrSyl,corrAns,keyCVC,keyCV,Condition,pracTarLoop.thisRepN,pracTarLoop.thisTrialN,pracTarLoop.thisN,pracTarLoop.thisIndex,pracTrialLoop.thisRepN,pracTrialLoop.thisTrialN,pracTrialLoop.thisN,pracTrialLoop.thisIndex,expTarLoop.thisRepN,expTarLoop.thisTrialN,expTarLoop.thisN,expTarLoop.thisIndex,expTrialLoop.thisRepN,expTrialLoop.thisTrialN,expTrialLoop.thisN,expTrialLoop.thisIndex,sylPracLoop.thisRepN,sylPracLoop.thisTrialN,sylPracLoop.thisN,sylPracLoop.thisIndex,syllableLoop.thisRepN,syllableLoop.thisTrialN,syllableLoop.thisN,syllableLoop.thisIndex,seg_key_resp.keys,seg_key_resp.rt,syl_key_resp.keys,syl_key_resp.corr,syl_key_resp.rt,participant,session,Name,date,expName,psychopyVersion,frameRate,
filleritem1,bacteria,farsante,nencida,parvaza,campaña,gimega,navura,burrada,,,,,,,,,,,,,,,,,,,,,,,,,,,,,,,,,,,,,,,,,,,,,,,,,,,,,,,,0,0,0,0,0,0,0,1,,,,,,,,,,,,,,,,,,,,,,part001,A,mattmann,2019_Mar_07_1924,Syllabification,3.0.5,60.07862634014836,
filleritem9,recodo,percance,rofiolo,tosaba,cornisa,ricobo,binima,sufragio,,,,,,,,,,,,,,,,,,,,,,,,,,,,,,,,,,,,,,,,,,,,,,,,,,,,,,,,0,0,0,0,0,1,1,9,,,,,,,,,,,,,,,,,,,,,,part001,A,mattmann,2019_Mar_07_1924,Syllabification,3.0.5,60.07862634014836,
filleritem4,poniente,largueza,mordiso,cortupto,sordera,rorencio,dabtura,ropero,,,,,,,,,,,,,,,,,,,,,,,,,,,,,,,,,,,,,,,,,,,,,,,,,,,,,,,,0,0,0,0,0,2,2,4,,,,,,,,,,,,,,,,,,,,,,part001,A,mattmann,2019_Mar_07_1924,Syllabification,3.0.5,60.07862634014836,
filleritem6,reguero,regato,tocida,simona,cizalla,vantema,dezida,ramaje,,,,,,,,,,,,,,,,,,,,,,,,,,,,,,,,,,,,,,,,,,,,,,,,,,,,,,,,0,0,0,0,0,3,3,6,,,,,,,,,,,,,,,,,,,,,,part001,A,mattmann,2019_Mar_07_1924,Syllabification,3.0.5,60.07862634014836,
filleritem5,concepto,rabillo,vangurdo,tolina,rasguño,tusvuja,tencrido,forraje,,,,,,,,,,,,,,,,,,,,,,,,,,,,,,,,,,,,,,,,,,,,,,,,,,,,,,,,0,0,0,0,0,4,4,5,,,,,,,,,,,,,,,,,,,,,,part001,A,mattmann,2019_Mar_07_1924,Syllabification,3.0.5,60.07862634014836,
carrierItem,silbido,cosigna,sildedo,venuro,venado,delbides,coserna,deltoides,,,,,,,,,,,,,,,,,,,,,,,,,,,,,,,,,,,,,,,,,,,,,,,,,,,,,,,,0,0,0,0,0,5,5,0,,,,,,,,,,,,,,,,,,,,,,part001,A,mattmann,2019_Mar_07_1924,Syllabification,3.0.5,60.07862634014836,
filleritem2,confianza,rivera,farime,tarsallo,sarcasmo,bascana,purjida,tungsteno,,,,,,,,,,,,,,,,,,,,,,,,,,,,,,,,,,,,,,,,,,,,,,,,,,,,,,,,0,0,0,0,0,6,6,2,,,,,,,,,,,,,,,,,,,,,,part001,A,mattmann,2019_Mar_07_1924,Syllabification,3.0.5,60.07862634014836,
filleritem8,donaire,pureza,devillo,foscillo,cigoto,nocena,galgango,vaquilla,,,,,,,,,,,,,,,,,,,,,,,,,,,,,,,,,,,,,,,,,,,,,,,,,,,,,,,,0,0,0,0,0,7,7,8,,,,,,,,,,,,,,,,,,,,,,part001,A,mattmann,2019_Mar_07_1924,Syllabification,3.0.5,60.07862634014836,
filleritem3,congreso,vergüenza,deciro,sutnido,gozada,gaferdo,vavipo,varilla,,,,,,,,,,,,,,,,,,,,,,,,,,,,,,,,,,,,,,,,,,,,,,,,,,,,,,,,0,0,0,0,0,8,8,3,,,,,,,,,,,,,,,,,,,,,,part001,A,mattmann,2019_Mar_07_1924,Syllabification,3.0.5,60.07862634014836,
filleritem7,noviazgo,ternera,tenvila,jagito,pocilga,vinsosta,fensuace,batuta,,,,,,,,,,,,,,,,,,,,,,,,,,,,,,,,,,,,,,,,,,,,,,,,,,,,,,,,0,0,0,0,0,9,9,7,,,,,,,,,,,,,,,,,,,,,,part001,A,mattmann,2019_Mar_07_1924,Syllabification,3.0.5,60.07862634014836,
targetSyl,sil,cos,si,ven,ve,del,co,de,,,,,,,,,,,,,,,,,,,,,,,,,,,,,,,,,,,,,,,,,,,,,,,,,,,,,,,,0,0,0,0,,,,,,,,,,,,,,,,,,,,,,,,,,part001,A,mattmann,2019_Mar_07_1924,Syllabification,3.0.5,60.07862634014836,
filleritem8,donaire,pureza,devillo,foscillo,cigoto,nocena,galgango,vaquilla,,,,,,,,,,,,,,,,,,,,,,,,,,,,,,,,,,,,,,,,,,,,,,,,,,,,,,,,1,0,1,0,0,0,0,8,,,,,,,,,,,,,,,,,,,,,,part001,A,mattmann,2019_Mar_07_1924,Syllabification,3.0.5,60.07862634014836,
filleritem5,concepto,rabillo,vangurdo,tolina,rasguño,tusvuja,tencrido,forraje,,,,,,,,,,,,,,,,,,,,,,,,,,,,,,,,,,,,,,,,,,,,,,,,,,,,,,,,1,0,1,0,0,1,1,5,,,,,,,,,,,,,,,,,,,,,,part001,A,mattmann,2019_Mar_07_1924,Syllabification,3.0.5,60.07862634014836,
carrierItem,silbido,cosigna,sildedo,venuro,venado,delbides,coserna,deltoides,,,,,,,,,,,,,,,,,,,,,,,,,,,,,,,,,,,,,,,,,,,,,,,,,,,,,,,,1,0,1,0,0,2,2,0,,,,,,,,,,,,,,,,,,,,,,part001,A,mattmann,2019_Mar_07_1924,Syllabification,3.0.5,60.07862634014836,
filleritem1,bacteria,farsante,nencida,parvaza,campaña,gimega,navura,burrada,,,,,,,,,,,,,,,,,,,,,,,,,,,,,,,,,,,,,,,,,,,,,,,,,,,,,,,,1,0,1,0,0,3,3,1,,,,,,,,,,,,,,,,,,,,,,part001,A,mattmann,2019_Mar_07_1924,Syllabification,3.0.5,60.07862634014836,
filleritem4,poniente,largueza,mordiso,cortupto,sordera,rorencio,dabtura,ropero,,,,,,,,,,,,,,,,,,,,,,,,,,,,,,,,,,,,,,,,,,,,,,,,,,,,,,,,1,0,1,0,0,4,4,4,,,,,,,,,,,,,,,,,,,,,,part001,A,mattmann,2019_Mar_07_1924,Syllabification,3.0.5,60.07862634014836,
filleritem3,congreso,vergüenza,deciro,sutnido,gozada,gaferdo,vavipo,varilla,,,,,,,,,,,,,,,,,,,,,,,,,,,,,,,,,,,,,,,,,,,,,,,,,,,,,,,,1,0,1,0,0,5,5,3,,,,,,,,,,,,,,,,,,,,,,part001,A,mattmann,2019_Mar_07_1924,Syllabification,3.0.5,60.07862634014836,
filleritem2,confianza,rivera,farime,tarsallo,sarcasmo,bascana,purjida,tungsteno,,,,,,,,,,,,,,,,,,,,,,,,,,,,,,,,,,,,,,,,,,,,,,,,,,,,,,,,1,0,1,0,0,6,6,2,,,,,,,,,,,,,,,,,,,,,,part001,A,mattmann,2019_Mar_07_1924,Syllabification,3.0.5,60.07862634014836,
filleritem6,reguero,regato,tocida,simona,cizalla,vantema,dezida,ramaje,,,,,,,,,,,,,,,,,,,,,,,,,,,,,,,,,,,,,,,,,,,,,,,,,,,,,,,,1,0,1,0,0,7,7,6,,,,,,,,,,,,,,,,,,,,,,part001,A,mattmann,2019_Mar_07_1924,Syllabification,3.0.5,60.07862634014836,
filleritem7,noviazgo,ternera,tenvila,jagito,pocilga,vinsosta,fensuace,batuta,,,,,,,,,,,,,,,,,,,,,,,,,,,,,,,,,,,,,,,,,,,,,,,,,,,,,,,,1,0,1,0,0,8,8,7,,,,,,,,,,,,,,,,,,,,,,part001,A,mattmann,2019_Mar_07_1924,Syllabification,3.0.5,60.07862634014836,
filleritem9,recodo,percance,rofiolo,tosaba,cornisa,ricobo,binima,sufragio,,,,,,,,,,,,,,,,,,,,,,,,,,,,,,,,,,,,,,,,,,,,,,,,,,,,,,,,1,0,1,0,0,9,9,9,,,,,,,,,,,,,,,,,,,,,,part001,A,mattmann,2019_Mar_07_1924,Syllabification,3.0.5,60.07862634014836,
targetSyl,sil,cos,si,ven,ve,del,co,de,,,,,,,,,,,,,,,,,,,,,,,,,,,,,,,,,,,,,,,,,,,,,,,,,,,,,,,,1,0,1,0,,,,,,,,,,,,,,,,,,,,,,,,,,part001,A,mattmann,2019_Mar_07_1924,Syllabification,3.0.5,60.07862634014836,
filleritem7,noviazgo,ternera,tenvila,jagito,pocilga,vinsosta,fensuace,batuta,,,,,,,,,,,,,,,,,,,,,,,,,,,,,,,,,,,,,,,,,,,,,,,,,,,,,,,,2,0,2,0,0,0,0,7,,,,,,,,,,,,,,,,,,,,,,part001,A,mattmann,2019_Mar_07_1924,Syllabification,3.0.5,60.07862634014836,
carrierItem,silbido,cosigna,sildedo,venuro,venado,delbides,coserna,deltoides,,,,,,,,,,,,,,,,,,,,,,,,,,,,,,,,,,,,,,,,,,,,,,,,,,,,,,,,2,0,2,0,0,1,1,0,,,,,,,,,,,,,,,,,,,,,,part001,A,mattmann,2019_Mar_07_1924,Syllabification,3.0.5,60.07862634014836,
filleritem5,concepto,rabillo,vangurdo,tolina,rasguño,tusvuja,tencrido,forraje,,,,,,,,,,,,,,,,,,,,,,,,,,,,,,,,,,,,,,,,,,,,,,,,,,,,,,,,2,0,2,0,0,2,2,5,,,,,,,,,,,,,,,,,,,,,,part001,A,mattmann,2019_Mar_07_1924,Syllabification,3.0.5,60.07862634014836,
filleritem2,confianza,rivera,farime,tarsallo,sarcasmo,bascana,purjida,tungsteno,,,,,,,,,,,,,,,,,,,,,,,,,,,,,,,,,,,,,,,,,,,,,,,,,,,,,,,,2,0,2,0,0,3,3,2,,,,,,,,,,,,,,,,,,,,,,part001,A,mattmann,2019_Mar_07_1924,Syllabification,3.0.5,60.07862634014836,
filleritem3,congreso,vergüenza,deciro,sutnido,gozada,gaferdo,vavipo,varilla,,,,,,,,,,,,,,,,,,,,,,,,,,,,,,,,,,,,,,,,,,,,,,,,,,,,,,,,2,0,2,0,0,4,4,3,,,,,,,,,,,,,,,,,,,,,,part001,A,mattmann,2019_Mar_07_1924,Syllabification,3.0.5,60.07862634014836,
filleritem8,donaire,pureza,devillo,foscillo,cigoto,nocena,galgango,vaquilla,,,,,,,,,,,,,,,,,,,,,,,,,,,,,,,,,,,,,,,,,,,,,,,,,,,,,,,,2,0,2,0,0,5,5,8,,,,,,,,,,,,,,,,,,,,,,part001,A,mattmann,2019_Mar_07_1924,Syllabification,3.0.5,60.07862634014836,
filleritem6,reguero,regato,tocida,simona,cizalla,vantema,dezida,ramaje,,,,,,,,,,,,,,,,,,,,,,,,,,,,,,,,,,,,,,,,,,,,,,,,,,,,,,,,2,0,2,0,0,6,6,6,,,,,,,,,,,,,,,,,,,,,,part001,A,mattmann,2019_Mar_07_1924,Syllabification,3.0.5,60.07862634014836,
filleritem9,recodo,percance,rofiolo,tosaba,cornisa,ricobo,binima,sufragio,,,,,,,,,,,,,,,,,,,,,,,,,,,,,,,,,,,,,,,,,,,,,,,,,,,,,,,,2,0,2,0,0,7,7,9,,,,,,,,,,,,,,,,,,,,,,part001,A,mattmann,2019_Mar_07_1924,Syllabification,3.0.5,60.07862634014836,
filleritem4,poniente,largueza,mordiso,cortupto,sordera,rorencio,dabtura,ropero,,,,,,,,,,,,,,,,,,,,,,,,,,,,,,,,,,,,,,,,,,,,,,,,,,,,,,,,2,0,2,0,0,8,8,4,,,,,,,,,,,,,,,,,,,,,,part001,A,mattmann,2019_Mar_07_1924,Syllabification,3.0.5,60.07862634014836,
filleritem1,bacteria,farsante,nencida,parvaza,campaña,gimega,navura,burrada,,,,,,,,,,,,,,,,,,,,,,,,,,,,,,,,,,,,,,,,,,,,,,,,,,,,,,,,2,0,2,0,0,9,9,1,,,,,,,,,,,,,,,,,,,,,,part001,A,mattmann,2019_Mar_07_1924,Syllabification,3.0.5,60.07862634014836,
targetSyl,sil,cos,si,ven,ve,del,co,de,,,,,,,,,,,,,,,,,,,,,,,,,,,,,,,,,,,,,,,,,,,,,,,,,,,,,,,,2,0,2,0,,,,,,,,,,,,,,,,,,,,,,,,,,part001,A,mattmann,2019_Mar_07_1924,Syllabification,3.0.5,60.07862634014836,
filleritem7,noviazgo,ternera,tenvila,jagito,pocilga,vinsosta,fensuace,batuta,,,,,,,,,,,,,,,,,,,,,,,,,,,,,,,,,,,,,,,,,,,,,,,,,,,,,,,,3,0,3,0,0,0,0,7,,,,,,,,,,,,,,,,,,,,,,part001,A,mattmann,2019_Mar_07_1924,Syllabification,3.0.5,60.07862634014836,
filleritem3,congreso,vergüenza,deciro,sutnido,gozada,gaferdo,vavipo,varilla,,,,,,,,,,,,,,,,,,,,,,,,,,,,,,,,,,,,,,,,,,,,,,,,,,,,,,,,3,0,3,0,0,1,1,3,,,,,,,,,,,,,,,,,,,,,,part001,A,mattmann,2019_Mar_07_1924,Syllabification,3.0.5,60.07862634014836,
filleritem5,concepto,rabillo,vangurdo,tolina,rasguño,tusvuja,tencrido,forraje,,,,,,,,,,,,,,,,,,,,,,,,,,,,,,,,,,,,,,,,,,,,,,,,,,,,,,,,3,0,3,0,0,2,2,5,,,,,,,,,,,,,,,,,,,,,,part001,A,mattmann,2019_Mar_07_1924,Syllabification,3.0.5,60.07862634014836,
filleritem4,poniente,largueza,mordiso,cortupto,sordera,rorencio,dabtura,ropero,,,,,,,,,,,,,,,,,,,,,,,,,,,,,,,,,,,,,,,,,,,,,,,,,,,,,,,,3,0,3,0,0,3,3,4,,,,,,,,,,,,,,,,,,,,,,part001,A,mattmann,2019_Mar_07_1924,Syllabification,3.0.5,60.07862634014836,
filleritem1,bacteria,farsante,nencida,parvaza,campaña,gimega,navura,burrada,,,,,,,,,,,,,,,,,,,,,,,,,,,,,,,,,,,,,,,,,,,,,,,,,,,,,,,,3,0,3,0,0,4,4,1,,,,,,,,,,,,,,,,,,,,,,part001,A,mattmann,2019_Mar_07_1924,Syllabification,3.0.5,60.07862634014836,
filleritem9,recodo,percance,rofiolo,tosaba,cornisa,ricobo,binima,sufragio,,,,,,,,,,,,,,,,,,,,,,,,,,,,,,,,,,,,,,,,,,,,,,,,,,,,,,,,3,0,3,0,0,5,5,9,,,,,,,,,,,,,,,,,,,,,,part001,A,mattmann,2019_Mar_07_1924,Syllabification,3.0.5,60.07862634014836,
carrierItem,silbido,cosigna,sildedo,venuro,venado,delbides,coserna,deltoides,,,,,,,,,,,,,,,,,,,,,,,,,,,,,,,,,,,,,,,,,,,,,,,,,,,,,,,,3,0,3,0,0,6,6,0,,,,,,,,,,,,,,,,,,,,,,part001,A,mattmann,2019_Mar_07_1924,Syllabification,3.0.5,60.07862634014836,
filleritem8,donaire,pureza,devillo,foscillo,cigoto,nocena,galgango,vaquilla,,,,,,,,,,,,,,,,,,,,,,,,,,,,,,,,,,,,,,,,,,,,,,,,,,,,,,,,3,0,3,0,0,7,7,8,,,,,,,,,,,,,,,,,,,,,,part001,A,mattmann,2019_Mar_07_1924,Syllabification,3.0.5,60.07862634014836,
filleritem2,confianza,rivera,farime,tarsallo,sarcasmo,bascana,purjida,tungsteno,,,,,,,,,,,,,,,,,,,,,,,,,,,,,,,,,,,,,,,,,,,,,,,,,,,,,,,,3,0,3,0,0,8,8,2,,,,,,,,,,,,,,,,,,,,,,part001,A,mattmann,2019_Mar_07_1924,Syllabification,3.0.5,60.07862634014836,
filleritem6,reguero,regato,tocida,simona,cizalla,vantema,dezida,ramaje,,,,,,,,,,,,,,,,,,,,,,,,,,,,,,,,,,,,,,,,,,,,,,,,,,,,,,,,3,0,3,0,0,9,9,6,,,,,,,,,,,,,,,,,,,,,,part001,A,mattmann,2019_Mar_07_1924,Syllabification,3.0.5,60.07862634014836,
targetSyl,sil,cos,si,ven,ve,del,co,de,,,,,,,,,,,,,,,,,,,,,,,,,,,,,,,,,,,,,,,,,,,,,,,,,,,,,,,,3,0,3,0,,,,,,,,,,,,,,,,,,,,,,,,,,part001,A,mattmann,2019_Mar_07_1924,Syllabification,3.0.5,60.07862634014836,
filleritem6,reguero,regato,tocida,simona,cizalla,vantema,dezida,ramaje,,,,,,,,,,,,,,,,,,,,,,,,,,,,,,,,,,,,,,,,,,,,,,,,,,,,,,,,4,0,4,0,0,0,0,6,,,,,,,,,,,,,,,,,,,,,,part001,A,mattmann,2019_Mar_07_1924,Syllabification,3.0.5,60.07862634014836,
filleritem8,donaire,pureza,devillo,foscillo,cigoto,nocena,galgango,vaquilla,,,,,,,,,,,,,,,,,,,,,,,,,,,,,,,,,,,,,,,,,,,,,,,,,,,,,,,,4,0,4,0,0,1,1,8,,,,,,,,,,,,,,,,,,,,,,part001,A,mattmann,2019_Mar_07_1924,Syllabification,3.0.5,60.07862634014836,
filleritem5,concepto,rabillo,vangurdo,tolina,rasguño,tusvuja,tencrido,forraje,,,,,,,,,,,,,,,,,,,,,,,,,,,,,,,,,,,,,,,,,,,,,,,,,,,,,,,,4,0,4,0,0,2,2,5,,,,,,,,,,,,,,,,,,,,,,part001,A,mattmann,2019_Mar_07_1924,Syllabification,3.0.5,60.07862634014836,
filleritem7,noviazgo,ternera,tenvila,jagito,pocilga,vinsosta,fensuace,batuta,,,,,,,,,,,,,,,,,,,,,,,,,,,,,,,,,,,,,,,,,,,,,,,,,,,,,,,,4,0,4,0,0,3,3,7,,,,,,,,,,,,,,,,,,,,,,part001,A,mattmann,2019_Mar_07_1924,Syllabification,3.0.5,60.07862634014836,
carrierItem,silbido,cosigna,sildedo,venuro,venado,delbides,coserna,deltoides,,,,,,,,,,,,,,,,,,,,,,,,,,,,,,,,,,,,,,,,,,,,,,,,,,,,,,,,4,0,4,0,0,4,4,0,,,,,,,,,,,,,,,,,,,,,,part001,A,mattmann,2019_Mar_07_1924,Syllabification,3.0.5,60.07862634014836,
filleritem1,bacteria,farsante,nencida,parvaza,campaña,gimega,navura,burrada,,,,,,,,,,,,,,,,,,,,,,,,,,,,,,,,,,,,,,,,,,,,,,,,,,,,,,,,4,0,4,0,0,5,5,1,,,,,,,,,,,,,,,,,,,,,,part001,A,mattmann,2019_Mar_07_1924,Syllabification,3.0.5,60.07862634014836,
filleritem2,confianza,rivera,farime,tarsallo,sarcasmo,bascana,purjida,tungsteno,,,,,,,,,,,,,,,,,,,,,,,,,,,,,,,,,,,,,,,,,,,,,,,,,,,,,,,,4,0,4,0,0,6,6,2,,,,,,,,,,,,,,,,,,,,,,part001,A,mattmann,2019_Mar_07_1924,Syllabification,3.0.5,60.07862634014836,
filleritem9,recodo,percance,rofiolo,tosaba,cornisa,ricobo,binima,sufragio,,,,,,,,,,,,,,,,,,,,,,,,,,,,,,,,,,,,,,,,,,,,,,,,,,,,,,,,4,0,4,0,0,7,7,9,,,,,,,,,,,,,,,,,,,,,,part001,A,mattmann,2019_Mar_07_1924,Syllabification,3.0.5,60.07862634014836,
filleritem3,congreso,vergüenza,deciro,sutnido,gozada,gaferdo,vavipo,varilla,,,,,,,,,,,,,,,,,,,,,,,,,,,,,,,,,,,,,,,,,,,,,,,,,,,,,,,,4,0,4,0,0,8,8,3,,,,,,,,,,,,,,,,,,,,,,part001,A,mattmann,2019_Mar_07_1924,Syllabification,3.0.5,60.07862634014836,
filleritem4,poniente,largueza,mordiso,cortupto,sordera,rorencio,dabtura,ropero,,,,,,,,,,,,,,,,,,,,,,,,,,,,,,,,,,,,,,,,,,,,,,,,,,,,,,,,4,0,4,0,0,9,9,4,,,,,,,,,,,,,,,,,,,,,,part001,A,mattmann,2019_Mar_07_1924,Syllabification,3.0.5,60.07862634014836,
targetSyl,sil,cos,si,ven,ve,del,co,de,,,,,,,,,,,,,,,,,,,,,,,,,,,,,,,,,,,,,,,,,,,,,,,,,,,,,,,,4,0,4,0,,,,,,,,,,,,,,,,,,,,,,,,,,part001,A,mattmann,2019_Mar_07_1924,Syllabification,3.0.5,60.07862634014836,
filleritem2,confianza,rivera,farime,tarsallo,sarcasmo,bascana,purjida,tungsteno,,,,,,,,,,,,,,,,,,,,,,,,,,,,,,,,,,,,,,,,,,,,,,,,,,,,,,,,5,0,5,0,0,0,0,2,,,,,,,,,,,,,,,,,,,,,,part001,A,mattmann,2019_Mar_07_1924,Syllabification,3.0.5,60.07862634014836,
filleritem3,congreso,vergüenza,deciro,sutnido,gozada,gaferdo,vavipo,varilla,,,,,,,,,,,,,,,,,,,,,,,,,,,,,,,,,,,,,,,,,,,,,,,,,,,,,,,,5,0,5,0,0,1,1,3,,,,,,,,,,,,,,,,,,,,,,part001,A,mattmann,2019_Mar_07_1924,Syllabification,3.0.5,60.07862634014836,
filleritem9,recodo,percance,rofiolo,tosaba,cornisa,ricobo,binima,sufragio,,,,,,,,,,,,,,,,,,,,,,,,,,,,,,,,,,,,,,,,,,,,,,,,,,,,,,,,5,0,5,0,0,2,2,9,,,,,,,,,,,,,,,,,,,,,,part001,A,mattmann,2019_Mar_07_1924,Syllabification,3.0.5,60.07862634014836,
filleritem6,reguero,regato,tocida,simona,cizalla,vantema,dezida,ramaje,,,,,,,,,,,,,,,,,,,,,,,,,,,,,,,,,,,,,,,,,,,,,,,,,,,,,,,,5,0,5,0,0,3,3,6,,,,,,,,,,,,,,,,,,,,,,part001,A,mattmann,2019_Mar_07_1924,Syllabification,3.0.5,60.07862634014836,
filleritem1,bacteria,farsante,nencida,parvaza,campaña,gimega,navura,burrada,,,,,,,,,,,,,,,,,,,,,,,,,,,,,,,,,,,,,,,,,,,,,,,,,,,,,,,,5,0,5,0,0,4,4,1,,,,,,,,,,,,,,,,,,,,,,part001,A,mattmann,2019_Mar_07_1924,Syllabification,3.0.5,60.07862634014836,
filleritem4,poniente,largueza,mordiso,cortupto,sordera,rorencio,dabtura,ropero,,,,,,,,,,,,,,,,,,,,,,,,,,,,,,,,,,,,,,,,,,,,,,,,,,,,,,,,5,0,5,0,0,5,5,4,,,,,,,,,,,,,,,,,,,,,,part001,A,mattmann,2019_Mar_07_1924,Syllabification,3.0.5,60.07862634014836,
filleritem7,noviazgo,ternera,tenvila,jagito,pocilga,vinsosta,fensuace,batuta,,,,,,,,,,,,,,,,,,,,,,,,,,,,,,,,,,,,,,,,,,,,,,,,,,,,,,,,5,0,5,0,0,6,6,7,,,,,,,,,,,,,,,,,,,,,,part001,A,mattmann,2019_Mar_07_1924,Syllabification,3.0.5,60.07862634014836,
carrierItem,silbido,cosigna,sildedo,venuro,venado,delbides,coserna,deltoides,,,,,,,,,,,,,,,,,,,,,,,,,,,,,,,,,,,,,,,,,,,,,,,,,,,,,,,,5,0,5,0,0,7,7,0,,,,,,,,,,,,,,,,,,,,,,part001,A,mattmann,2019_Mar_07_1924,Syllabification,3.0.5,60.07862634014836,
filleritem8,donaire,pureza,devillo,foscillo,cigoto,nocena,galgango,vaquilla,,,,,,,,,,,,,,,,,,,,,,,,,,,,,,,,,,,,,,,,,,,,,,,,,,,,,,,,5,0,5,0,0,8,8,8,,,,,,,,,,,,,,,,,,,,,,part001,A,mattmann,2019_Mar_07_1924,Syllabification,3.0.5,60.07862634014836,
filleritem5,concepto,rabillo,vangurdo,tolina,rasguño,tusvuja,tencrido,forraje,,,,,,,,,,,,,,,,,,,,,,,,,,,,,,,,,,,,,,,,,,,,,,,,,,,,,,,,5,0,5,0,0,9,9,5,,,,,,,,,,,,,,,,,,,,,,part001,A,mattmann,2019_Mar_07_1924,Syllabification,3.0.5,60.07862634014836,
targetSyl,sil,cos,si,ven,ve,del,co,de,,,,,,,,,,,,,,,,,,,,,,,,,,,,,,,,,,,,,,,,,,,,,,,,,,,,,,,,5,0,5,0,,,,,,,,,,,,,,,,,,,,,,,,,,part001,A,mattmann,2019_Mar_07_1924,Syllabification,3.0.5,60.07862634014836,
filleritem4,poniente,largueza,mordiso,cortupto,sordera,rorencio,dabtura,ropero,,,,,,,,,,,,,,,,,,,,,,,,,,,,,,,,,,,,,,,,,,,,,,,,,,,,,,,,6,0,6,0,0,0,0,4,,,,,,,,,,,,,,,,,,,,,,part001,A,mattmann,2019_Mar_07_1924,Syllabification,3.0.5,60.07862634014836,
filleritem5,concepto,rabillo,vangurdo,tolina,rasguño,tusvuja,tencrido,forraje,,,,,,,,,,,,,,,,,,,,,,,,,,,,,,,,,,,,,,,,,,,,,,,,,,,,,,,,6,0,6,0,0,1,1,5,,,,,,,,,,,,,,,,,,,,,,part001,A,mattmann,2019_Mar_07_1924,Syllabification,3.0.5,60.07862634014836,
filleritem8,donaire,pureza,devillo,foscillo,cigoto,nocena,galgango,vaquilla,,,,,,,,,,,,,,,,,,,,,,,,,,,,,,,,,,,,,,,,,,,,,,,,,,,,,,,,6,0,6,0,0,2,2,8,,,,,,,,,,,,,,,,,,,,,,part001,A,mattmann,2019_Mar_07_1924,Syllabification,3.0.5,60.07862634014836,
filleritem3,congreso,vergüenza,deciro,sutnido,gozada,gaferdo,vavipo,varilla,,,,,,,,,,,,,,,,,,,,,,,,,,,,,,,,,,,,,,,,,,,,,,,,,,,,,,,,6,0,6,0,0,3,3,3,,,,,,,,,,,,,,,,,,,,,,part001,A,mattmann,2019_Mar_07_1924,Syllabification,3.0.5,60.07862634014836,
carrierItem,silbido,cosigna,sildedo,venuro,venado,delbides,coserna,deltoides,,,,,,,,,,,,,,,,,,,,,,,,,,,,,,,,,,,,,,,,,,,,,,,,,,,,,,,,6,0,6,0,0,4,4,0,,,,,,,,,,,,,,,,,,,,,,part001,A,mattmann,2019_Mar_07_1924,Syllabification,3.0.5,60.07862634014836,
filleritem9,recodo,percance,rofiolo,tosaba,cornisa,ricobo,binima,sufragio,,,,,,,,,,,,,,,,,,,,,,,,,,,,,,,,,,,,,,,,,,,,,,,,,,,,,,,,6,0,6,0,0,5,5,9,,,,,,,,,,,,,,,,,,,,,,part001,A,mattmann,2019_Mar_07_1924,Syllabification,3.0.5,60.07862634014836,
filleritem7,noviazgo,ternera,tenvila,jagito,pocilga,vinsosta,fensuace,batuta,,,,,,,,,,,,,,,,,,,,,,,,,,,,,,,,,,,,,,,,,,,,,,,,,,,,,,,,6,0,6,0,0,6,6,7,,,,,,,,,,,,,,,,,,,,,,part001,A,mattmann,2019_Mar_07_1924,Syllabification,3.0.5,60.07862634014836,
filleritem2,confianza,rivera,farime,tarsallo,sarcasmo,bascana,purjida,tungsteno,,,,,,,,,,,,,,,,,,,,,,,,,,,,,,,,,,,,,,,,,,,,,,,,,,,,,,,,6,0,6,0,0,7,7,2,,,,,,,,,,,,,,,,,,,,,,part001,A,mattmann,2019_Mar_07_1924,Syllabification,3.0.5,60.07862634014836,
filleritem1,bacteria,farsante,nencida,parvaza,campaña,gimega,navura,burrada,,,,,,,,,,,,,,,,,,,,,,,,,,,,,,,,,,,,,,,,,,,,,,,,,,,,,,,,6,0,6,0,0,8,8,1,,,,,,,,,,,,,,,,,,,,,,part001,A,mattmann,2019_Mar_07_1924,Syllabification,3.0.5,60.07862634014836,
filleritem6,reguero,regato,tocida,simona,cizalla,vantema,dezida,ramaje,,,,,,,,,,,,,,,,,,,,,,,,,,,,,,,,,,,,,,,,,,,,,,,,,,,,,,,,6,0,6,0,0,9,9,6,,,,,,,,,,,,,,,,,,,,,,part001,A,mattmann,2019_Mar_07_1924,Syllabification,3.0.5,60.07862634014836,
targetSyl,sil,cos,si,ven,ve,del,co,de,,,,,,,,,,,,,,,,,,,,,,,,,,,,,,,,,,,,,,,,,,,,,,,,,,,,,,,,6,0,6,0,,,,,,,,,,,,,,,,,,,,,,,,,,part001,A,mattmann,2019_Mar_07_1924,Syllabification,3.0.5,60.07862634014836,
filleritem9,recodo,percance,rofiolo,tosaba,cornisa,ricobo,binima,sufragio,,,,,,,,,,,,,,,,,,,,,,,,,,,,,,,,,,,,,,,,,,,,,,,,,,,,,,,,7,0,7,0,0,0,0,9,,,,,,,,,,,,,,,,,,,,,,part001,A,mattmann,2019_Mar_07_1924,Syllabification,3.0.5,60.07862634014836,
filleritem2,confianza,rivera,farime,tarsallo,sarcasmo,bascana,purjida,tungsteno,,,,,,,,,,,,,,,,,,,,,,,,,,,,,,,,,,,,,,,,,,,,,,,,,,,,,,,,7,0,7,0,0,1,1,2,,,,,,,,,,,,,,,,,,,,,,part001,A,mattmann,2019_Mar_07_1924,Syllabification,3.0.5,60.07862634014836,
filleritem1,bacteria,farsante,nencida,parvaza,campaña,gimega,navura,burrada,,,,,,,,,,,,,,,,,,,,,,,,,,,,,,,,,,,,,,,,,,,,,,,,,,,,,,,,7,0,7,0,0,2,2,1,,,,,,,,,,,,,,,,,,,,,,part001,A,mattmann,2019_Mar_07_1924,Syllabification,3.0.5,60.07862634014836,
carrierItem,silbido,cosigna,sildedo,venuro,venado,delbides,coserna,deltoides,,,,,,,,,,,,,,,,,,,,,,,,,,,,,,,,,,,,,,,,,,,,,,,,,,,,,,,,7,0,7,0,0,3,3,0,,,,,,,,,,,,,,,,,,,,,,part001,A,mattmann,2019_Mar_07_1924,Syllabification,3.0.5,60.07862634014836,
filleritem7,noviazgo,ternera,tenvila,jagito,pocilga,vinsosta,fensuace,batuta,,,,,,,,,,,,,,,,,,,,,,,,,,,,,,,,,,,,,,,,,,,,,,,,,,,,,,,,7,0,7,0,0,4,4,7,,,,,,,,,,,,,,,,,,,,,,part001,A,mattmann,2019_Mar_07_1924,Syllabification,3.0.5,60.07862634014836,
filleritem4,poniente,largueza,mordiso,cortupto,sordera,rorencio,dabtura,ropero,,,,,,,,,,,,,,,,,,,,,,,,,,,,,,,,,,,,,,,,,,,,,,,,,,,,,,,,7,0,7,0,0,5,5,4,,,,,,,,,,,,,,,,,,,,,,part001,A,mattmann,2019_Mar_07_1924,Syllabification,3.0.5,60.07862634014836,
filleritem5,concepto,rabillo,vangurdo,tolina,rasguño,tusvuja,tencrido,forraje,,,,,,,,,,,,,,,,,,,,,,,,,,,,,,,,,,,,,,,,,,,,,,,,,,,,,,,,7,0,7,0,0,6,6,5,,,,,,,,,,,,,,,,,,,,,,part001,A,mattmann,2019_Mar_07_1924,Syllabification,3.0.5,60.07862634014836,
filleritem3,congreso,vergüenza,deciro,sutnido,gozada,gaferdo,vavipo,varilla,,,,,,,,,,,,,,,,,,,,,,,,,,,,,,,,,,,,,,,,,,,,,,,,,,,,,,,,7,0,7,0,0,7,7,3,,,,,,,,,,,,,,,,,,,,,,part001,A,mattmann,2019_Mar_07_1924,Syllabification,3.0.5,60.07862634014836,
filleritem8,donaire,pureza,devillo,foscillo,cigoto,nocena,galgango,vaquilla,,,,,,,,,,,,,,,,,,,,,,,,,,,,,,,,,,,,,,,,,,,,,,,,,,,,,,,,7,0,7,0,0,8,8,8,,,,,,,,,,,,,,,,,,,,,,part001,A,mattmann,2019_Mar_07_1924,Syllabification,3.0.5,60.07862634014836,
filleritem6,reguero,regato,tocida,simona,cizalla,vantema,dezida,ramaje,,,,,,,,,,,,,,,,,,,,,,,,,,,,,,,,,,,,,,,,,,,,,,,,,,,,,,,,7,0,7,0,0,9,9,6,,,,,,,,,,,,,,,,,,,,,,part001,A,mattmann,2019_Mar_07_1924,Syllabification,3.0.5,60.07862634014836,
targetSyl,sil,cos,si,ven,ve,del,co,de,,,,,,,,,,,,,,,,,,,,,,,,,,,,,,,,,,,,,,,,,,,,,,,,,,,,,,,,7,0,7,0,,,,,,,,,,,,,,,,,,,,,,,,,,part001,A,mattmann,2019_Mar_07_1924,Syllabification,3.0.5,60.07862634014836,
,,,,,,,,,filleritem1,pantalla,sandía,vofida,tejado,pintura,depite,cabsiva,poncilla,ricofo,palcillo,langosta,biluesa,narciso,tomida,tulvano,juntura,certeza,docado,hicuila,senena,zancada,parvida,gorguera,tinaja,tidioma,ventana,pescante,lumbrera,renombre,submundo,balzalla,tartana,divona,lirina,talante,zarzuela,nesedo,tifencio,salfrabla,zapato,denciña,bengala,tidencio,portillo,demida,soponso,punzada,testigo,,,,,,,,,,,,,,,0,0,0,0,0,0,0,1,,,,,,,,,None,,,,,part001,A,mattmann,2019_Mar_07_1924,Syllabification,3.0.5,60.07862634014836,
,,,,,,,,,filleritem2,lenguaje,soltura,moncura,zumbido,sarmiento,neteno,dinona,sobisco,rartanto,bitero,jilguero,cividra,gustillo,devita,cicauco,centeno,cordero,normaso,lisnombre,viztura,tumulto,sociare,gorjeo,sonrisa,cinsecho,bufete,pestillo,polvillo,tortuga,laxante,fimegra,portazo,mipcura,bitena,tornillo,perchero,dosgiente,pificha,canveta,venganza,cecaja,lanzazo,parsida,sobaco,nemeto,zictencia,mortaja,vestuario,,,,,,,,,,,,,,,0,0,0,0,0,1,1,2,,,,,,,,,None,,,,,part001,A,mattmann,2019_Mar_07_1924,Syllabification,3.0.5,60.07862634014836,
,,,,,,,,,filleritem7,legajo,suceso,noñita,riqueza,fijeza,sunsanso,fensuale,costonche,tecterio,nastallo,jacinto,fuzallo,recato,rizgura,cuntela,tarima,rudeza,talaja,rucilla,siquija,vigilia,tornanga,regata,fajardo,canreza,salero,rebeca,cimiento,picota,resabio,puljida,recurso,mifena,tarbenga,lavabo,redada,dipona,berana,vicime,taquilla,donania,bufido,meptrona,barcaza,dilisia,dosbiente,tobera,dolencia,,,,,,,,,,,,,,,0,0,0,0,0,2,2,7,,,,,,,,,None,,,,,part001,A,mattmann,2019_Mar_07_1924,Syllabification,3.0.5,60.07862634014836,
,,,,,,,,,filleritem5,putada,jactancia,lunino,tortazo,vertiente,sobvondo,cicisa,ferfuera,nundero,tudala,fantoche,piglillo,farola,tecido,tildona,serpiente,mordisco,cabsero,cicaimo,civicha,tintero,pospana,fortuna,bolzano,denfiña,bandera,felpudo,mensaje,sortija,lectura,nafiaca,jasmina,venetlo,torsenza,burbuja,barbilla,norita,detnana,zaldizo,pulgada,sinvera,pulsera,sitena,soborno,penvalla,cicaigo,vendaje,vivencia,,,,,,,,,,,,,,,0,0,0,0,0,3,3,5,,,,,,,,,None,,,,,part001,A,mattmann,2019_Mar_07_1924,Syllabification,3.0.5,60.07862634014836,
,,,,,,,,,filleritem3,cambiazo,ginebra,biñena,postigo,verdura,nenedo,sucema,nurese,perdisno,depiaro,gordura,gantarna,remiendo,civillo,nulese,ternura,fogata,bicera,tecillo,cosdura,ventaja,decanro,conducta,sandalia,bimena,palmada,filete,solera,semilla,vislumbre,dulcura,vereda,fivalia,gifema,ruptura,nevera,varime,ciroca,gantina,fastidio,vestolcio,ventisca,ducoste,respuesta,pirijuo,ruñansa,puntilla,poltrona,,,,,,,,,,,,,,,0,0,0,0,0,4,4,3,,,,,,,,,None,,,,,part001,A,mattmann,2019_Mar_07_1924,Syllabification,3.0.5,60.07862634014836,
,,,,,,,,,filleritem9,balbina,jinete,tonvanza,rejilla,teniente,fuztancia,punfullo,tenguga,nidero,fivancia,dominio,bimina,jarabe,cubteha,sufiasa,sepulcro,ciruelo,lultame,zuccancia,caljero,bigote,tercega,giralda,gotera,demonto,jaqueca,velero,tiniebla,sonido,barbecho,vuzarda,dureza,bardana,ruspina,ribera,navaja,manvera,torsanga,lisbombre,cilindro,cencera,vinilo,senrera,torija,lercuente,decibio,fineza,pizarra,,,,,,,,,,,,,,,0,0,0,0,0,5,5,9,,,,,,,,,None,,,,,part001,A,mattmann,2019_Mar_07_1924,Syllabification,3.0.5,60.07862634014836,
,,,,,,,,,filleritem4,campiña,solvencia,tovero,portento,tobillo,dedioro,puscalla,fascuna,vifema,nansaso,doncella,banzalla,fundillo,cunceza,numete,gentuza,mordaza,daviba,pargaza,bipero,cintura,taviño,vivero,pancarta,lectorio,pandilla,fondillo,pinchazo,torpeza,salchicha,zuscura,zarpazo,baldeblo,turquma,durmiente,persiana,fantarna,tocensia,nuseto,piltrafa,cicora,vigencia,banfalla,garbanzo,bercillo,cuntefa,luneta,lactancia,,,,,,,,,,,,,,,0,0,0,0,0,6,6,4,,,,,,,,,None,,,,,part001,A,mattmann,2019_Mar_07_1924,Syllabification,3.0.5,60.07862634014836,
,,,,,,,,,filleritem8,veleta,juguete,fampioza,piragua,tesoro,sutmido,suñuela,reninso,canfleco,vinsenza,duquesa,vendagio,tetilla,duliste,pembanse,recado,gomina,gorente,viltancia,codoro,pupitre,tusorto,cigarra,pomada,talfrado,velorio,ribazo,sopapo,sotana,rapiña,vastimo,tocino,ventoble,lasgüenza,butaca,naranjo,fangurdo,zurdado,tivencio,vejiga,vobita,tisana,deroda,sureste,febago,fontama,rimero,tibieza,,,,,,,,,,,,,,,0,0,0,0,0,7,7,8,,,,,,,,,None,,,,,part001,A,mattmann,2019_Mar_07_1924,Syllabification,3.0.5,60.07862634014836,
,,,,,,,,,carrierItem,rosario,permiso,cerliza,ganchillo,culebra,camofa,morbollo,limucna,bolipo,corteta,peseta,joruma,bolsillo,paslolla,garventa,volante,pastilla,pesdeña,moniga,murdallo,joroba,linele,paloma,cereza,rosepio,corbata,camisa,garaje,baldosa,moneda,corura,linterna,cosiba,cenoca,centavo,costilla,culitra,ganquillo,periga,morera,palbira,corona,volpeje,limpieza,casgollo,balbusa,castillo,murmullo,,,,,,,,,,,,,,,0,0,0,0,0,8,8,0,,,,,,,,,y,0.8332949400000871,,,,part001,A,mattmann,2019_Mar_07_1924,Syllabification,3.0.5,60.07862634014836,
,,,,,,,,,filleritem6,pileta,gusano,tunsuja,reliquia,tarjeta,tunruja,nacañe,fañeilla,recoltre,delido,laguna,tinneza,rastrillo,mingrago,mufenza,reducto,relente,tutmuja,fernuera,lastadia,piscina,poscallo,cornada,tinglado,fimallo,visillo,suspenso,tendencia,tersura,tufillo,binero,regazo,funclera,midena,viruela,viraje,permaza,tercajo,naverdo,vistazo,simedo,pesquisa,suseña,pozuelo,voltura,soreto,remanso,tapete,,,,,,,,,,,,,,,0,0,0,0,0,9,9,6,,,,,,,,,None,,,,,part001,A,mattmann,2019_Mar_07_1924,Syllabification,3.0.5,60.07862634014836,
,,,,,,,,,targetSyl,ro,per,cer,gan,cul,cam,mo,li,bol,co,pe,jo,bo,pas,gar,vol,pa,pes,mo,mur,jor,lin,pal,ce,ros,cor,cam,ga,bal,mo,cor,li,cos,ce,cen,co,cu,ga,pe,mor,pa,co,vo,lim,cas,ba,ca,mu,,,,,,,,,,,,,,,0,0,0,0,,,,,,,,,,,,,,,,,,part001,A,mattmann,2019_Mar_07_1924,Syllabification,3.0.5,60.07862634014836,
,,,,,,,,,carrierItem,rosario,permiso,cerliza,ganchillo,culebra,camofa,morbollo,limucna,bolipo,corteta,peseta,joruma,bolsillo,paslolla,garventa,volante,pastilla,pesdeña,moniga,murdallo,joroba,linele,paloma,cereza,rosepio,corbata,camisa,garaje,baldosa,moneda,corura,linterna,cosiba,cenoca,centavo,costilla,culitra,ganquillo,periga,morera,palbira,corona,volpeje,limpieza,casgollo,balbusa,castillo,murmullo,,,,,,,,,,,,,,,1,0,1,0,0,0,0,0,,,,,,,,,y,0.9017376960000547,,,,part001,A,mattmann,2019_Mar_07_1924,Syllabification,3.0.5,60.07862634014836,
,,,,,,,,,filleritem5,putada,jactancia,lunino,tortazo,vertiente,sobvondo,cicisa,ferfuera,nundero,tudala,fantoche,piglillo,farola,tecido,tildona,serpiente,mordisco,cabsero,cicaimo,civicha,tintero,pospana,fortuna,bolzano,denfiña,bandera,felpudo,mensaje,sortija,lectura,nafiaca,jasmina,venetlo,torsenza,burbuja,barbilla,norita,detnana,zaldizo,pulgada,sinvera,pulsera,sitena,soborno,penvalla,cicaigo,vendaje,vivencia,,,,,,,,,,,,,,,1,0,1,0,0,1,1,5,,,,,,,,,None,,,,,part001,A,mattmann,2019_Mar_07_1924,Syllabification,3.0.5,60.07862634014836,
,,,,,,,,,filleritem9,balbina,jinete,tonvanza,rejilla,teniente,fuztancia,punfullo,tenguga,nidero,fivancia,dominio,bimina,jarabe,cubteha,sufiasa,sepulcro,ciruelo,lultame,zuccancia,caljero,bigote,tercega,giralda,gotera,demonto,jaqueca,velero,tiniebla,sonido,barbecho,vuzarda,dureza,bardana,ruspina,ribera,navaja,manvera,torsanga,lisbombre,cilindro,cencera,vinilo,senrera,torija,lercuente,decibio,fineza,pizarra,,,,,,,,,,,,,,,1,0,1,0,0,2,2,9,,,,,,,,,None,,,,,part001,A,mattmann,2019_Mar_07_1924,Syllabification,3.0.5,60.07862634014836,
,,,,,,,,,filleritem1,pantalla,sandía,vofida,tejado,pintura,depite,cabsiva,poncilla,ricofo,palcillo,langosta,biluesa,narciso,tomida,tulvano,juntura,certeza,docado,hicuila,senena,zancada,parvida,gorguera,tinaja,tidioma,ventana,pescante,lumbrera,renombre,submundo,balzalla,tartana,divona,lirina,talante,zarzuela,nesedo,tifencio,salfrabla,zapato,denciña,bengala,tidencio,portillo,demida,soponso,punzada,testigo,,,,,,,,,,,,,,,1,0,1,0,0,3,3,1,,,,,,,,,None,,,,,part001,A,mattmann,2019_Mar_07_1924,Syllabification,3.0.5,60.07862634014836,
,,,,,,,,,filleritem4,campiña,solvencia,tovero,portento,tobillo,dedioro,puscalla,fascuna,vifema,nansaso,doncella,banzalla,fundillo,cunceza,numete,gentuza,mordaza,daviba,pargaza,bipero,cintura,taviño,vivero,pancarta,lectorio,pandilla,fondillo,pinchazo,torpeza,salchicha,zuscura,zarpazo,baldeblo,turquma,durmiente,persiana,fantarna,tocensia,nuseto,piltrafa,cicora,vigencia,banfalla,garbanzo,bercillo,cuntefa,luneta,lactancia,,,,,,,,,,,,,,,1,0,1,0,0,4,4,4,,,,,,,,,None,,,,,part001,A,mattmann,2019_Mar_07_1924,Syllabification,3.0.5,60.07862634014836,
,,,,,,,,,filleritem8,veleta,juguete,fampioza,piragua,tesoro,sutmido,suñuela,reninso,canfleco,vinsenza,duquesa,vendagio,tetilla,duliste,pembanse,recado,gomina,gorente,viltancia,codoro,pupitre,tusorto,cigarra,pomada,talfrado,velorio,ribazo,sopapo,sotana,rapiña,vastimo,tocino,ventoble,lasgüenza,butaca,naranjo,fangurdo,zurdado,tivencio,vejiga,vobita,tisana,deroda,sureste,febago,fontama,rimero,tibieza,,,,,,,,,,,,,,,1,0,1,0,0,5,5,8,,,,,,,,,None,,,,,part001,A,mattmann,2019_Mar_07_1924,Syllabification,3.0.5,60.07862634014836,
,,,,,,,,,filleritem3,cambiazo,ginebra,biñena,postigo,verdura,nenedo,sucema,nurese,perdisno,depiaro,gordura,gantarna,remiendo,civillo,nulese,ternura,fogata,bicera,tecillo,cosdura,ventaja,decanro,conducta,sandalia,bimena,palmada,filete,solera,semilla,vislumbre,dulcura,vereda,fivalia,gifema,ruptura,nevera,varime,ciroca,gantina,fastidio,vestolcio,ventisca,ducoste,respuesta,pirijuo,ruñansa,puntilla,poltrona,,,,,,,,,,,,,,,1,0,1,0,0,6,6,3,,,,,,,,,None,,,,,part001,A,mattmann,2019_Mar_07_1924,Syllabification,3.0.5,60.07862634014836,
,,,,,,,,,filleritem2,lenguaje,soltura,moncura,zumbido,sarmiento,neteno,dinona,sobisco,rartanto,bitero,jilguero,cividra,gustillo,devita,cicauco,centeno,cordero,normaso,lisnombre,viztura,tumulto,sociare,gorjeo,sonrisa,cinsecho,bufete,pestillo,polvillo,tortuga,laxante,fimegra,portazo,mipcura,bitena,tornillo,perchero,dosgiente,pificha,canveta,venganza,cecaja,lanzazo,parsida,sobaco,nemeto,zictencia,mortaja,vestuario,,,,,,,,,,,,,,,1,0,1,0,0,7,7,2,,,,,,,,,None,,,,,part001,A,mattmann,2019_Mar_07_1924,Syllabification,3.0.5,60.07862634014836,
,,,,,,,,,filleritem6,pileta,gusano,tunsuja,reliquia,tarjeta,tunruja,nacañe,fañeilla,recoltre,delido,laguna,tinneza,rastrillo,mingrago,mufenza,reducto,relente,tutmuja,fernuera,lastadia,piscina,poscallo,cornada,tinglado,fimallo,visillo,suspenso,tendencia,tersura,tufillo,binero,regazo,funclera,midena,viruela,viraje,permaza,tercajo,naverdo,vistazo,simedo,pesquisa,suseña,pozuelo,voltura,soreto,remanso,tapete,,,,,,,,,,,,,,,1,0,1,0,0,8,8,6,,,,,,,,,None,,,,,part001,A,mattmann,2019_Mar_07_1924,Syllabification,3.0.5,60.07862634014836,
,,,,,,,,,filleritem7,legajo,suceso,noñita,riqueza,fijeza,sunsanso,fensuale,costonche,tecterio,nastallo,jacinto,fuzallo,recato,rizgura,cuntela,tarima,rudeza,talaja,rucilla,siquija,vigilia,tornanga,regata,fajardo,canreza,salero,rebeca,cimiento,picota,resabio,puljida,recurso,mifena,tarbenga,lavabo,redada,dipona,berana,vicime,taquilla,donania,bufido,meptrona,barcaza,dilisia,dosbiente,tobera,dolencia,,,,,,,,,,,,,,,1,0,1,0,0,9,9,7,,,,,,,,,None,,,,,part001,A,mattmann,2019_Mar_07_1924,Syllabification,3.0.5,60.07862634014836,
,,,,,,,,,targetSyl,ro,per,cer,gan,cul,cam,mo,li,bol,co,pe,jo,bo,pas,gar,vol,pa,pes,mo,mur,jor,lin,pal,ce,ros,cor,cam,ga,bal,mo,cor,li,cos,ce,cen,co,cu,ga,pe,mor,pa,co,vo,lim,cas,ba,ca,mu,,,,,,,,,,,,,,,1,0,1,0,,,,,,,,,,,,,,,,,,part001,A,mattmann,2019_Mar_07_1924,Syllabification,3.0.5,60.07862634014836,
,,,,,,,,,filleritem3,cambiazo,ginebra,biñena,postigo,verdura,nenedo,sucema,nurese,perdisno,depiaro,gordura,gantarna,remiendo,civillo,nulese,ternura,fogata,bicera,tecillo,cosdura,ventaja,decanro,conducta,sandalia,bimena,palmada,filete,solera,semilla,vislumbre,dulcura,vereda,fivalia,gifema,ruptura,nevera,varime,ciroca,gantina,fastidio,vestolcio,ventisca,ducoste,respuesta,pirijuo,ruñansa,puntilla,poltrona,,,,,,,,,,,,,,,2,0,2,0,0,0,0,3,,,,,,,,,None,,,,,part001,A,mattmann,2019_Mar_07_1924,Syllabification,3.0.5,60.07862634014836,
,,,,,,,,,filleritem8,veleta,juguete,fampioza,piragua,tesoro,sutmido,suñuela,reninso,canfleco,vinsenza,duquesa,vendagio,tetilla,duliste,pembanse,recado,gomina,gorente,viltancia,codoro,pupitre,tusorto,cigarra,pomada,talfrado,velorio,ribazo,sopapo,sotana,rapiña,vastimo,tocino,ventoble,lasgüenza,butaca,naranjo,fangurdo,zurdado,tivencio,vejiga,vobita,tisana,deroda,sureste,febago,fontama,rimero,tibieza,,,,,,,,,,,,,,,2,0,2,0,0,1,1,8,,,,,,,,,None,,,,,part001,A,mattmann,2019_Mar_07_1924,Syllabification,3.0.5,60.07862634014836,
,,,,,,,,,filleritem7,legajo,suceso,noñita,riqueza,fijeza,sunsanso,fensuale,costonche,tecterio,nastallo,jacinto,fuzallo,recato,rizgura,cuntela,tarima,rudeza,talaja,rucilla,siquija,vigilia,tornanga,regata,fajardo,canreza,salero,rebeca,cimiento,picota,resabio,puljida,recurso,mifena,tarbenga,lavabo,redada,dipona,berana,vicime,taquilla,donania,bufido,meptrona,barcaza,dilisia,dosbiente,tobera,dolencia,,,,,,,,,,,,,,,2,0,2,0,0,2,2,7,,,,,,,,,None,,,,,part001,A,mattmann,2019_Mar_07_1924,Syllabification,3.0.5,60.07862634014836,
,,,,,,,,,filleritem9,balbina,jinete,tonvanza,rejilla,teniente,fuztancia,punfullo,tenguga,nidero,fivancia,dominio,bimina,jarabe,cubteha,sufiasa,sepulcro,ciruelo,lultame,zuccancia,caljero,bigote,tercega,giralda,gotera,demonto,jaqueca,velero,tiniebla,sonido,barbecho,vuzarda,dureza,bardana,ruspina,ribera,navaja,manvera,torsanga,lisbombre,cilindro,cencera,vinilo,senrera,torija,lercuente,decibio,fineza,pizarra,,,,,,,,,,,,,,,2,0,2,0,0,3,3,9,,,,,,,,,None,,,,,part001,A,mattmann,2019_Mar_07_1924,Syllabification,3.0.5,60.07862634014836,
,,,,,,,,,filleritem6,pileta,gusano,tunsuja,reliquia,tarjeta,tunruja,nacañe,fañeilla,recoltre,delido,laguna,tinneza,rastrillo,mingrago,mufenza,reducto,relente,tutmuja,fernuera,lastadia,piscina,poscallo,cornada,tinglado,fimallo,visillo,suspenso,tendencia,tersura,tufillo,binero,regazo,funclera,midena,viruela,viraje,permaza,tercajo,naverdo,vistazo,simedo,pesquisa,suseña,pozuelo,voltura,soreto,remanso,tapete,,,,,,,,,,,,,,,2,0,2,0,0,4,4,6,,,,,,,,,None,,,,,part001,A,mattmann,2019_Mar_07_1924,Syllabification,3.0.5,60.07862634014836,
,,,,,,,,,filleritem1,pantalla,sandía,vofida,tejado,pintura,depite,cabsiva,poncilla,ricofo,palcillo,langosta,biluesa,narciso,tomida,tulvano,juntura,certeza,docado,hicuila,senena,zancada,parvida,gorguera,tinaja,tidioma,ventana,pescante,lumbrera,renombre,submundo,balzalla,tartana,divona,lirina,talante,zarzuela,nesedo,tifencio,salfrabla,zapato,denciña,bengala,tidencio,portillo,demida,soponso,punzada,testigo,,,,,,,,,,,,,,,2,0,2,0,0,5,5,1,,,,,,,,,None,,,,,part001,A,mattmann,2019_Mar_07_1924,Syllabification,3.0.5,60.07862634014836,
,,,,,,,,,carrierItem,rosario,permiso,cerliza,ganchillo,culebra,camofa,morbollo,limucna,bolipo,corteta,peseta,joruma,bolsillo,paslolla,garventa,volante,pastilla,pesdeña,moniga,murdallo,joroba,linele,paloma,cereza,rosepio,corbata,camisa,garaje,baldosa,moneda,corura,linterna,cosiba,cenoca,centavo,costilla,culitra,ganquillo,periga,morera,palbira,corona,volpeje,limpieza,casgollo,balbusa,castillo,murmullo,,,,,,,,,,,,,,,2,0,2,0,0,6,6,0,,,,,,,,,y,0.597613469999942,,,,part001,A,mattmann,2019_Mar_07_1924,Syllabification,3.0.5,60.07862634014836,
,,,,,,,,,filleritem2,lenguaje,soltura,moncura,zumbido,sarmiento,neteno,dinona,sobisco,rartanto,bitero,jilguero,cividra,gustillo,devita,cicauco,centeno,cordero,normaso,lisnombre,viztura,tumulto,sociare,gorjeo,sonrisa,cinsecho,bufete,pestillo,polvillo,tortuga,laxante,fimegra,portazo,mipcura,bitena,tornillo,perchero,dosgiente,pificha,canveta,venganza,cecaja,lanzazo,parsida,sobaco,nemeto,zictencia,mortaja,vestuario,,,,,,,,,,,,,,,2,0,2,0,0,7,7,2,,,,,,,,,None,,,,,part001,A,mattmann,2019_Mar_07_1924,Syllabification,3.0.5,60.07862634014836,
,,,,,,,,,filleritem4,campiña,solvencia,tovero,portento,tobillo,dedioro,puscalla,fascuna,vifema,nansaso,doncella,banzalla,fundillo,cunceza,numete,gentuza,mordaza,daviba,pargaza,bipero,cintura,taviño,vivero,pancarta,lectorio,pandilla,fondillo,pinchazo,torpeza,salchicha,zuscura,zarpazo,baldeblo,turquma,durmiente,persiana,fantarna,tocensia,nuseto,piltrafa,cicora,vigencia,banfalla,garbanzo,bercillo,cuntefa,luneta,lactancia,,,,,,,,,,,,,,,2,0,2,0,0,8,8,4,,,,,,,,,y,0.699990654999965,,,,part001,A,mattmann,2019_Mar_07_1924,Syllabification,3.0.5,60.07862634014836,
,,,,,,,,,filleritem5,putada,jactancia,lunino,tortazo,vertiente,sobvondo,cicisa,ferfuera,nundero,tudala,fantoche,piglillo,farola,tecido,tildona,serpiente,mordisco,cabsero,cicaimo,civicha,tintero,pospana,fortuna,bolzano,denfiña,bandera,felpudo,mensaje,sortija,lectura,nafiaca,jasmina,venetlo,torsenza,burbuja,barbilla,norita,detnana,zaldizo,pulgada,sinvera,pulsera,sitena,soborno,penvalla,cicaigo,vendaje,vivencia,,,,,,,,,,,,,,,2,0,2,0,0,9,9,5,,,,,,,,,None,,,,,part001,A,mattmann,2019_Mar_07_1924,Syllabification,3.0.5,60.07862634014836,
,,,,,,,,,targetSyl,ro,per,cer,gan,cul,cam,mo,li,bol,co,pe,jo,bo,pas,gar,vol,pa,pes,mo,mur,jor,lin,pal,ce,ros,cor,cam,ga,bal,mo,cor,li,cos,ce,cen,co,cu,ga,pe,mor,pa,co,vo,lim,cas,ba,ca,mu,,,,,,,,,,,,,,,2,0,2,0,,,,,,,,,,,,,,,,,,part001,A,mattmann,2019_Mar_07_1924,Syllabification,3.0.5,60.07862634014836,
,,,,,,,,,filleritem8,veleta,juguete,fampioza,piragua,tesoro,sutmido,suñuela,reninso,canfleco,vinsenza,duquesa,vendagio,tetilla,duliste,pembanse,recado,gomina,gorente,viltancia,codoro,pupitre,tusorto,cigarra,pomada,talfrado,velorio,ribazo,sopapo,sotana,rapiña,vastimo,tocino,ventoble,lasgüenza,butaca,naranjo,fangurdo,zurdado,tivencio,vejiga,vobita,tisana,deroda,sureste,febago,fontama,rimero,tibieza,,,,,,,,,,,,,,,3,0,3,0,0,0,0,8,,,,,,,,,None,,,,,part001,A,mattmann,2019_Mar_07_1924,Syllabification,3.0.5,60.07862634014836,
,,,,,,,,,filleritem2,lenguaje,soltura,moncura,zumbido,sarmiento,neteno,dinona,sobisco,rartanto,bitero,jilguero,cividra,gustillo,devita,cicauco,centeno,cordero,normaso,lisnombre,viztura,tumulto,sociare,gorjeo,sonrisa,cinsecho,bufete,pestillo,polvillo,tortuga,laxante,fimegra,portazo,mipcura,bitena,tornillo,perchero,dosgiente,pificha,canveta,venganza,cecaja,lanzazo,parsida,sobaco,nemeto,zictencia,mortaja,vestuario,,,,,,,,,,,,,,,3,0,3,0,0,1,1,2,,,,,,,,,None,,,,,part001,A,mattmann,2019_Mar_07_1924,Syllabification,3.0.5,60.07862634014836,
,,,,,,,,,filleritem9,balbina,jinete,tonvanza,rejilla,teniente,fuztancia,punfullo,tenguga,nidero,fivancia,dominio,bimina,jarabe,cubteha,sufiasa,sepulcro,ciruelo,lultame,zuccancia,caljero,bigote,tercega,giralda,gotera,demonto,jaqueca,velero,tiniebla,sonido,barbecho,vuzarda,dureza,bardana,ruspina,ribera,navaja,manvera,torsanga,lisbombre,cilindro,cencera,vinilo,senrera,torija,lercuente,decibio,fineza,pizarra,,,,,,,,,,,,,,,3,0,3,0,0,2,2,9,,,,,,,,,None,,,,,part001,A,mattmann,2019_Mar_07_1924,Syllabification,3.0.5,60.07862634014836,
,,,,,,,,,filleritem5,putada,jactancia,lunino,tortazo,vertiente,sobvondo,cicisa,ferfuera,nundero,tudala,fantoche,piglillo,farola,tecido,tildona,serpiente,mordisco,cabsero,cicaimo,civicha,tintero,pospana,fortuna,bolzano,denfiña,bandera,felpudo,mensaje,sortija,lectura,nafiaca,jasmina,venetlo,torsenza,burbuja,barbilla,norita,detnana,zaldizo,pulgada,sinvera,pulsera,sitena,soborno,penvalla,cicaigo,vendaje,vivencia,,,,,,,,,,,,,,,3,0,3,0,0,3,3,5,,,,,,,,,None,,,,,part001,A,mattmann,2019_Mar_07_1924,Syllabification,3.0.5,60.07862634014836,
,,,,,,,,,carrierItem,rosario,permiso,cerliza,ganchillo,culebra,camofa,morbollo,limucna,bolipo,corteta,peseta,joruma,bolsillo,paslolla,garventa,volante,pastilla,pesdeña,moniga,murdallo,joroba,linele,paloma,cereza,rosepio,corbata,camisa,garaje,baldosa,moneda,corura,linterna,cosiba,cenoca,centavo,costilla,culitra,ganquillo,periga,morera,palbira,corona,volpeje,limpieza,casgollo,balbusa,castillo,murmullo,,,,,,,,,,,,,,,3,0,3,0,0,4,4,0,,,,,,,,,y,0.752009697000176,,,,part001,A,mattmann,2019_Mar_07_1924,Syllabification,3.0.5,60.07862634014836,
,,,,,,,,,filleritem7,legajo,suceso,noñita,riqueza,fijeza,sunsanso,fensuale,costonche,tecterio,nastallo,jacinto,fuzallo,recato,rizgura,cuntela,tarima,rudeza,talaja,rucilla,siquija,vigilia,tornanga,regata,fajardo,canreza,salero,rebeca,cimiento,picota,resabio,puljida,recurso,mifena,tarbenga,lavabo,redada,dipona,berana,vicime,taquilla,donania,bufido,meptrona,barcaza,dilisia,dosbiente,tobera,dolencia,,,,,,,,,,,,,,,3,0,3,0,0,5,5,7,,,,,,,,,None,,,,,part001,A,mattmann,2019_Mar_07_1924,Syllabification,3.0.5,60.07862634014836,
,,,,,,,,,filleritem4,campiña,solvencia,tovero,portento,tobillo,dedioro,puscalla,fascuna,vifema,nansaso,doncella,banzalla,fundillo,cunceza,numete,gentuza,mordaza,daviba,pargaza,bipero,cintura,taviño,vivero,pancarta,lectorio,pandilla,fondillo,pinchazo,torpeza,salchicha,zuscura,zarpazo,baldeblo,turquma,durmiente,persiana,fantarna,tocensia,nuseto,piltrafa,cicora,vigencia,banfalla,garbanzo,bercillo,cuntefa,luneta,lactancia,,,,,,,,,,,,,,,3,0,3,0,0,6,6,4,,,,,,,,,None,,,,,part001,A,mattmann,2019_Mar_07_1924,Syllabification,3.0.5,60.07862634014836,
,,,,,,,,,filleritem1,pantalla,sandía,vofida,tejado,pintura,depite,cabsiva,poncilla,ricofo,palcillo,langosta,biluesa,narciso,tomida,tulvano,juntura,certeza,docado,hicuila,senena,zancada,parvida,gorguera,tinaja,tidioma,ventana,pescante,lumbrera,renombre,submundo,balzalla,tartana,divona,lirina,talante,zarzuela,nesedo,tifencio,salfrabla,zapato,denciña,bengala,tidencio,portillo,demida,soponso,punzada,testigo,,,,,,,,,,,,,,,3,0,3,0,0,7,7,1,,,,,,,,,None,,,,,part001,A,mattmann,2019_Mar_07_1924,Syllabification,3.0.5,60.07862634014836,
,,,,,,,,,filleritem3,cambiazo,ginebra,biñena,postigo,verdura,nenedo,sucema,nurese,perdisno,depiaro,gordura,gantarna,remiendo,civillo,nulese,ternura,fogata,bicera,tecillo,cosdura,ventaja,decanro,conducta,sandalia,bimena,palmada,filete,solera,semilla,vislumbre,dulcura,vereda,fivalia,gifema,ruptura,nevera,varime,ciroca,gantina,fastidio,vestolcio,ventisca,ducoste,respuesta,pirijuo,ruñansa,puntilla,poltrona,,,,,,,,,,,,,,,3,0,3,0,0,8,8,3,,,,,,,,,None,,,,,part001,A,mattmann,2019_Mar_07_1924,Syllabification,3.0.5,60.07862634014836,
,,,,,,,,,filleritem6,pileta,gusano,tunsuja,reliquia,tarjeta,tunruja,nacañe,fañeilla,recoltre,delido,laguna,tinneza,rastrillo,mingrago,mufenza,reducto,relente,tutmuja,fernuera,lastadia,piscina,poscallo,cornada,tinglado,fimallo,visillo,suspenso,tendencia,tersura,tufillo,binero,regazo,funclera,midena,viruela,viraje,permaza,tercajo,naverdo,vistazo,simedo,pesquisa,suseña,pozuelo,voltura,soreto,remanso,tapete,,,,,,,,,,,,,,,3,0,3,0,0,9,9,6,,,,,,,,,None,,,,,part001,A,mattmann,2019_Mar_07_1924,Syllabification,3.0.5,60.07862634014836,
,,,,,,,,,targetSyl,ro,per,cer,gan,cul,cam,mo,li,bol,co,pe,jo,bo,pas,gar,vol,pa,pes,mo,mur,jor,lin,pal,ce,ros,cor,cam,ga,bal,mo,cor,li,cos,ce,cen,co,cu,ga,pe,mor,pa,co,vo,lim,cas,ba,ca,mu,,,,,,,,,,,,,,,3,0,3,0,,,,,,,,,,,,,,,,,,part001,A,mattmann,2019_Mar_07_1924,Syllabification,3.0.5,60.07862634014836,
,,,,,,,,,filleritem7,legajo,suceso,noñita,riqueza,fijeza,sunsanso,fensuale,costonche,tecterio,nastallo,jacinto,fuzallo,recato,rizgura,cuntela,tarima,rudeza,talaja,rucilla,siquija,vigilia,tornanga,regata,fajardo,canreza,salero,rebeca,cimiento,picota,resabio,puljida,recurso,mifena,tarbenga,lavabo,redada,dipona,berana,vicime,taquilla,donania,bufido,meptrona,barcaza,dilisia,dosbiente,tobera,dolencia,,,,,,,,,,,,,,,4,0,4,0,0,0,0,7,,,,,,,,,None,,,,,part001,A,mattmann,2019_Mar_07_1924,Syllabification,3.0.5,60.07862634014836,
,,,,,,,,,filleritem8,veleta,juguete,fampioza,piragua,tesoro,sutmido,suñuela,reninso,canfleco,vinsenza,duquesa,vendagio,tetilla,duliste,pembanse,recado,gomina,gorente,viltancia,codoro,pupitre,tusorto,cigarra,pomada,talfrado,velorio,ribazo,sopapo,sotana,rapiña,vastimo,tocino,ventoble,lasgüenza,butaca,naranjo,fangurdo,zurdado,tivencio,vejiga,vobita,tisana,deroda,sureste,febago,fontama,rimero,tibieza,,,,,,,,,,,,,,,4,0,4,0,0,1,1,8,,,,,,,,,None,,,,,part001,A,mattmann,2019_Mar_07_1924,Syllabification,3.0.5,60.07862634014836,
,,,,,,,,,filleritem1,pantalla,sandía,vofida,tejado,pintura,depite,cabsiva,poncilla,ricofo,palcillo,langosta,biluesa,narciso,tomida,tulvano,juntura,certeza,docado,hicuila,senena,zancada,parvida,gorguera,tinaja,tidioma,ventana,pescante,lumbrera,renombre,submundo,balzalla,tartana,divona,lirina,talante,zarzuela,nesedo,tifencio,salfrabla,zapato,denciña,bengala,tidencio,portillo,demida,soponso,punzada,testigo,,,,,,,,,,,,,,,4,0,4,0,0,2,2,1,,,,,,,,,None,,,,,part001,A,mattmann,2019_Mar_07_1924,Syllabification,3.0.5,60.07862634014836,
,,,,,,,,,filleritem6,pileta,gusano,tunsuja,reliquia,tarjeta,tunruja,nacañe,fañeilla,recoltre,delido,laguna,tinneza,rastrillo,mingrago,mufenza,reducto,relente,tutmuja,fernuera,lastadia,piscina,poscallo,cornada,tinglado,fimallo,visillo,suspenso,tendencia,tersura,tufillo,binero,regazo,funclera,midena,viruela,viraje,permaza,tercajo,naverdo,vistazo,simedo,pesquisa,suseña,pozuelo,voltura,soreto,remanso,tapete,,,,,,,,,,,,,,,4,0,4,0,0,3,3,6,,,,,,,,,None,,,,,part001,A,mattmann,2019_Mar_07_1924,Syllabification,3.0.5,60.07862634014836,
,,,,,,,,,filleritem9,balbina,jinete,tonvanza,rejilla,teniente,fuztancia,punfullo,tenguga,nidero,fivancia,dominio,bimina,jarabe,cubteha,sufiasa,sepulcro,ciruelo,lultame,zuccancia,caljero,bigote,tercega,giralda,gotera,demonto,jaqueca,velero,tiniebla,sonido,barbecho,vuzarda,dureza,bardana,ruspina,ribera,navaja,manvera,torsanga,lisbombre,cilindro,cencera,vinilo,senrera,torija,lercuente,decibio,fineza,pizarra,,,,,,,,,,,,,,,4,0,4,0,0,4,4,9,,,,,,,,,None,,,,,part001,A,mattmann,2019_Mar_07_1924,Syllabification,3.0.5,60.07862634014836,
,,,,,,,,,filleritem3,cambiazo,ginebra,biñena,postigo,verdura,nenedo,sucema,nurese,perdisno,depiaro,gordura,gantarna,remiendo,civillo,nulese,ternura,fogata,bicera,tecillo,cosdura,ventaja,decanro,conducta,sandalia,bimena,palmada,filete,solera,semilla,vislumbre,dulcura,vereda,fivalia,gifema,ruptura,nevera,varime,ciroca,gantina,fastidio,vestolcio,ventisca,ducoste,respuesta,pirijuo,ruñansa,puntilla,poltrona,,,,,,,,,,,,,,,4,0,4,0,0,5,5,3,,,,,,,,,None,,,,,part001,A,mattmann,2019_Mar_07_1924,Syllabification,3.0.5,60.07862634014836,
,,,,,,,,,filleritem5,putada,jactancia,lunino,tortazo,vertiente,sobvondo,cicisa,ferfuera,nundero,tudala,fantoche,piglillo,farola,tecido,tildona,serpiente,mordisco,cabsero,cicaimo,civicha,tintero,pospana,fortuna,bolzano,denfiña,bandera,felpudo,mensaje,sortija,lectura,nafiaca,jasmina,venetlo,torsenza,burbuja,barbilla,norita,detnana,zaldizo,pulgada,sinvera,pulsera,sitena,soborno,penvalla,cicaigo,vendaje,vivencia,,,,,,,,,,,,,,,4,0,4,0,0,6,6,5,,,,,,,,,None,,,,,part001,A,mattmann,2019_Mar_07_1924,Syllabification,3.0.5,60.07862634014836,
,,,,,,,,,filleritem2,lenguaje,soltura,moncura,zumbido,sarmiento,neteno,dinona,sobisco,rartanto,bitero,jilguero,cividra,gustillo,devita,cicauco,centeno,cordero,normaso,lisnombre,viztura,tumulto,sociare,gorjeo,sonrisa,cinsecho,bufete,pestillo,polvillo,tortuga,laxante,fimegra,portazo,mipcura,bitena,tornillo,perchero,dosgiente,pificha,canveta,venganza,cecaja,lanzazo,parsida,sobaco,nemeto,zictencia,mortaja,vestuario,,,,,,,,,,,,,,,4,0,4,0,0,7,7,2,,,,,,,,,None,,,,,part001,A,mattmann,2019_Mar_07_1924,Syllabification,3.0.5,60.07862634014836,
,,,,,,,,,carrierItem,rosario,permiso,cerliza,ganchillo,culebra,camofa,morbollo,limucna,bolipo,corteta,peseta,joruma,bolsillo,paslolla,garventa,volante,pastilla,pesdeña,moniga,murdallo,joroba,linele,paloma,cereza,rosepio,corbata,camisa,garaje,baldosa,moneda,corura,linterna,cosiba,cenoca,centavo,costilla,culitra,ganquillo,periga,morera,palbira,corona,volpeje,limpieza,casgollo,balbusa,castillo,murmullo,,,,,,,,,,,,,,,4,0,4,0,0,8,8,0,,,,,,,,,y,0.5679920580000726,,,,part001,A,mattmann,2019_Mar_07_1924,Syllabification,3.0.5,60.07862634014836,
,,,,,,,,,filleritem4,campiña,solvencia,tovero,portento,tobillo,dedioro,puscalla,fascuna,vifema,nansaso,doncella,banzalla,fundillo,cunceza,numete,gentuza,mordaza,daviba,pargaza,bipero,cintura,taviño,vivero,pancarta,lectorio,pandilla,fondillo,pinchazo,torpeza,salchicha,zuscura,zarpazo,baldeblo,turquma,durmiente,persiana,fantarna,tocensia,nuseto,piltrafa,cicora,vigencia,banfalla,garbanzo,bercillo,cuntefa,luneta,lactancia,,,,,,,,,,,,,,,4,0,4,0,0,9,9,4,,,,,,,,,None,,,,,part001,A,mattmann,2019_Mar_07_1924,Syllabification,3.0.5,60.07862634014836,
,,,,,,,,,targetSyl,ro,per,cer,gan,cul,cam,mo,li,bol,co,pe,jo,bo,pas,gar,vol,pa,pes,mo,mur,jor,lin,pal,ce,ros,cor,cam,ga,bal,mo,cor,li,cos,ce,cen,co,cu,ga,pe,mor,pa,co,vo,lim,cas,ba,ca,mu,,,,,,,,,,,,,,,4,0,4,0,,,,,,,,,,,,,,,,,,part001,A,mattmann,2019_Mar_07_1924,Syllabification,3.0.5,60.07862634014836,
,,,,,,,,,filleritem7,legajo,suceso,noñita,riqueza,fijeza,sunsanso,fensuale,costonche,tecterio,nastallo,jacinto,fuzallo,recato,rizgura,cuntela,tarima,rudeza,talaja,rucilla,siquija,vigilia,tornanga,regata,fajardo,canreza,salero,rebeca,cimiento,picota,resabio,puljida,recurso,mifena,tarbenga,lavabo,redada,dipona,berana,vicime,taquilla,donania,bufido,meptrona,barcaza,dilisia,dosbiente,tobera,dolencia,,,,,,,,,,,,,,,5,0,5,0,0,0,0,7,,,,,,,,,None,,,,,part001,A,mattmann,2019_Mar_07_1924,Syllabification,3.0.5,60.07862634014836,
,,,,,,,,,filleritem4,campiña,solvencia,tovero,portento,tobillo,dedioro,puscalla,fascuna,vifema,nansaso,doncella,banzalla,fundillo,cunceza,numete,gentuza,mordaza,daviba,pargaza,bipero,cintura,taviño,vivero,pancarta,lectorio,pandilla,fondillo,pinchazo,torpeza,salchicha,zuscura,zarpazo,baldeblo,turquma,durmiente,persiana,fantarna,tocensia,nuseto,piltrafa,cicora,vigencia,banfalla,garbanzo,bercillo,cuntefa,luneta,lactancia,,,,,,,,,,,,,,,5,0,5,0,0,1,1,4,,,,,,,,,None,,,,,part001,A,mattmann,2019_Mar_07_1924,Syllabification,3.0.5,60.07862634014836,
,,,,,,,,,filleritem8,veleta,juguete,fampioza,piragua,tesoro,sutmido,suñuela,reninso,canfleco,vinsenza,duquesa,vendagio,tetilla,duliste,pembanse,recado,gomina,gorente,viltancia,codoro,pupitre,tusorto,cigarra,pomada,talfrado,velorio,ribazo,sopapo,sotana,rapiña,vastimo,tocino,ventoble,lasgüenza,butaca,naranjo,fangurdo,zurdado,tivencio,vejiga,vobita,tisana,deroda,sureste,febago,fontama,rimero,tibieza,,,,,,,,,,,,,,,5,0,5,0,0,2,2,8,,,,,,,,,None,,,,,part001,A,mattmann,2019_Mar_07_1924,Syllabification,3.0.5,60.07862634014836,
,,,,,,,,,filleritem9,balbina,jinete,tonvanza,rejilla,teniente,fuztancia,punfullo,tenguga,nidero,fivancia,dominio,bimina,jarabe,cubteha,sufiasa,sepulcro,ciruelo,lultame,zuccancia,caljero,bigote,tercega,giralda,gotera,demonto,jaqueca,velero,tiniebla,sonido,barbecho,vuzarda,dureza,bardana,ruspina,ribera,navaja,manvera,torsanga,lisbombre,cilindro,cencera,vinilo,senrera,torija,lercuente,decibio,fineza,pizarra,,,,,,,,,,,,,,,5,0,5,0,0,3,3,9,,,,,,,,,None,,,,,part001,A,mattmann,2019_Mar_07_1924,Syllabification,3.0.5,60.07862634014836,
,,,,,,,,,filleritem5,putada,jactancia,lunino,tortazo,vertiente,sobvondo,cicisa,ferfuera,nundero,tudala,fantoche,piglillo,farola,tecido,tildona,serpiente,mordisco,cabsero,cicaimo,civicha,tintero,pospana,fortuna,bolzano,denfiña,bandera,felpudo,mensaje,sortija,lectura,nafiaca,jasmina,venetlo,torsenza,burbuja,barbilla,norita,detnana,zaldizo,pulgada,sinvera,pulsera,sitena,soborno,penvalla,cicaigo,vendaje,vivencia,,,,,,,,,,,,,,,5,0,5,0,0,4,4,5,,,,,,,,,None,,,,,part001,A,mattmann,2019_Mar_07_1924,Syllabification,3.0.5,60.07862634014836,
,,,,,,,,,filleritem1,pantalla,sandía,vofida,tejado,pintura,depite,cabsiva,poncilla,ricofo,palcillo,langosta,biluesa,narciso,tomida,tulvano,juntura,certeza,docado,hicuila,senena,zancada,parvida,gorguera,tinaja,tidioma,ventana,pescante,lumbrera,renombre,submundo,balzalla,tartana,divona,lirina,talante,zarzuela,nesedo,tifencio,salfrabla,zapato,denciña,bengala,tidencio,portillo,demida,soponso,punzada,testigo,,,,,,,,,,,,,,,5,0,5,0,0,5,5,1,,,,,,,,,None,,,,,part001,A,mattmann,2019_Mar_07_1924,Syllabification,3.0.5,60.07862634014836,
,,,,,,,,,carrierItem,rosario,permiso,cerliza,ganchillo,culebra,camofa,morbollo,limucna,bolipo,corteta,peseta,joruma,bolsillo,paslolla,garventa,volante,pastilla,pesdeña,moniga,murdallo,joroba,linele,paloma,cereza,rosepio,corbata,camisa,garaje,baldosa,moneda,corura,linterna,cosiba,cenoca,centavo,costilla,culitra,ganquillo,periga,morera,palbira,corona,volpeje,limpieza,casgollo,balbusa,castillo,murmullo,,,,,,,,,,,,,,,5,0,5,0,0,6,6,0,,,,,,,,,y,0.717769815000338,,,,part001,A,mattmann,2019_Mar_07_1924,Syllabification,3.0.5,60.07862634014836,
,,,,,,,,,filleritem3,cambiazo,ginebra,biñena,postigo,verdura,nenedo,sucema,nurese,perdisno,depiaro,gordura,gantarna,remiendo,civillo,nulese,ternura,fogata,bicera,tecillo,cosdura,ventaja,decanro,conducta,sandalia,bimena,palmada,filete,solera,semilla,vislumbre,dulcura,vereda,fivalia,gifema,ruptura,nevera,varime,ciroca,gantina,fastidio,vestolcio,ventisca,ducoste,respuesta,pirijuo,ruñansa,puntilla,poltrona,,,,,,,,,,,,,,,5,0,5,0,0,7,7,3,,,,,,,,,None,,,,,part001,A,mattmann,2019_Mar_07_1924,Syllabification,3.0.5,60.07862634014836,
,,,,,,,,,filleritem2,lenguaje,soltura,moncura,zumbido,sarmiento,neteno,dinona,sobisco,rartanto,bitero,jilguero,cividra,gustillo,devita,cicauco,centeno,cordero,normaso,lisnombre,viztura,tumulto,sociare,gorjeo,sonrisa,cinsecho,bufete,pestillo,polvillo,tortuga,laxante,fimegra,portazo,mipcura,bitena,tornillo,perchero,dosgiente,pificha,canveta,venganza,cecaja,lanzazo,parsida,sobaco,nemeto,zictencia,mortaja,vestuario,,,,,,,,,,,,,,,5,0,5,0,0,8,8,2,,,,,,,,,None,,,,,part001,A,mattmann,2019_Mar_07_1924,Syllabification,3.0.5,60.07862634014836,
,,,,,,,,,filleritem6,pileta,gusano,tunsuja,reliquia,tarjeta,tunruja,nacañe,fañeilla,recoltre,delido,laguna,tinneza,rastrillo,mingrago,mufenza,reducto,relente,tutmuja,fernuera,lastadia,piscina,poscallo,cornada,tinglado,fimallo,visillo,suspenso,tendencia,tersura,tufillo,binero,regazo,funclera,midena,viruela,viraje,permaza,tercajo,naverdo,vistazo,simedo,pesquisa,suseña,pozuelo,voltura,soreto,remanso,tapete,,,,,,,,,,,,,,,5,0,5,0,0,9,9,6,,,,,,,,,None,,,,,part001,A,mattmann,2019_Mar_07_1924,Syllabification,3.0.5,60.07862634014836,
,,,,,,,,,targetSyl,ro,per,cer,gan,cul,cam,mo,li,bol,co,pe,jo,bo,pas,gar,vol,pa,pes,mo,mur,jor,lin,pal,ce,ros,cor,cam,ga,bal,mo,cor,li,cos,ce,cen,co,cu,ga,pe,mor,pa,co,vo,lim,cas,ba,ca,mu,,,,,,,,,,,,,,,5,0,5,0,,,,,,,,,,,,,,,,,,part001,A,mattmann,2019_Mar_07_1924,Syllabification,3.0.5,60.07862634014836,
,,,,,,,,,filleritem7,legajo,suceso,noñita,riqueza,fijeza,sunsanso,fensuale,costonche,tecterio,nastallo,jacinto,fuzallo,recato,rizgura,cuntela,tarima,rudeza,talaja,rucilla,siquija,vigilia,tornanga,regata,fajardo,canreza,salero,rebeca,cimiento,picota,resabio,puljida,recurso,mifena,tarbenga,lavabo,redada,dipona,berana,vicime,taquilla,donania,bufido,meptrona,barcaza,dilisia,dosbiente,tobera,dolencia,,,,,,,,,,,,,,,6,0,6,0,0,0,0,7,,,,,,,,,None,,,,,part001,A,mattmann,2019_Mar_07_1924,Syllabification,3.0.5,60.07862634014836,
,,,,,,,,,carrierItem,rosario,permiso,cerliza,ganchillo,culebra,camofa,morbollo,limucna,bolipo,corteta,peseta,joruma,bolsillo,paslolla,garventa,volante,pastilla,pesdeña,moniga,murdallo,joroba,linele,paloma,cereza,rosepio,corbata,camisa,garaje,baldosa,moneda,corura,linterna,cosiba,cenoca,centavo,costilla,culitra,ganquillo,periga,morera,palbira,corona,volpeje,limpieza,casgollo,balbusa,castillo,murmullo,,,,,,,,,,,,,,,6,0,6,0,0,1,1,0,,,,,,,,,y,0.818495256999995,,,,part001,A,mattmann,2019_Mar_07_1924,Syllabification,3.0.5,60.07862634014836,
,,,,,,,,,filleritem2,lenguaje,soltura,moncura,zumbido,sarmiento,neteno,dinona,sobisco,rartanto,bitero,jilguero,cividra,gustillo,devita,cicauco,centeno,cordero,normaso,lisnombre,viztura,tumulto,sociare,gorjeo,sonrisa,cinsecho,bufete,pestillo,polvillo,tortuga,laxante,fimegra,portazo,mipcura,bitena,tornillo,perchero,dosgiente,pificha,canveta,venganza,cecaja,lanzazo,parsida,sobaco,nemeto,zictencia,mortaja,vestuario,,,,,,,,,,,,,,,6,0,6,0,0,2,2,2,,,,,,,,,None,,,,,part001,A,mattmann,2019_Mar_07_1924,Syllabification,3.0.5,60.07862634014836,
,,,,,,,,,filleritem5,putada,jactancia,lunino,tortazo,vertiente,sobvondo,cicisa,ferfuera,nundero,tudala,fantoche,piglillo,farola,tecido,tildona,serpiente,mordisco,cabsero,cicaimo,civicha,tintero,pospana,fortuna,bolzano,denfiña,bandera,felpudo,mensaje,sortija,lectura,nafiaca,jasmina,venetlo,torsenza,burbuja,barbilla,norita,detnana,zaldizo,pulgada,sinvera,pulsera,sitena,soborno,penvalla,cicaigo,vendaje,vivencia,,,,,,,,,,,,,,,6,0,6,0,0,3,3,5,,,,,,,,,None,,,,,part001,A,mattmann,2019_Mar_07_1924,Syllabification,3.0.5,60.07862634014836,
,,,,,,,,,filleritem8,veleta,juguete,fampioza,piragua,tesoro,sutmido,suñuela,reninso,canfleco,vinsenza,duquesa,vendagio,tetilla,duliste,pembanse,recado,gomina,gorente,viltancia,codoro,pupitre,tusorto,cigarra,pomada,talfrado,velorio,ribazo,sopapo,sotana,rapiña,vastimo,tocino,ventoble,lasgüenza,butaca,naranjo,fangurdo,zurdado,tivencio,vejiga,vobita,tisana,deroda,sureste,febago,fontama,rimero,tibieza,,,,,,,,,,,,,,,6,0,6,0,0,4,4,8,,,,,,,,,None,,,,,part001,A,mattmann,2019_Mar_07_1924,Syllabification,3.0.5,60.07862634014836,
,,,,,,,,,filleritem6,pileta,gusano,tunsuja,reliquia,tarjeta,tunruja,nacañe,fañeilla,recoltre,delido,laguna,tinneza,rastrillo,mingrago,mufenza,reducto,relente,tutmuja,fernuera,lastadia,piscina,poscallo,cornada,tinglado,fimallo,visillo,suspenso,tendencia,tersura,tufillo,binero,regazo,funclera,midena,viruela,viraje,permaza,tercajo,naverdo,vistazo,simedo,pesquisa,suseña,pozuelo,voltura,soreto,remanso,tapete,,,,,,,,,,,,,,,6,0,6,0,0,5,5,6,,,,,,,,,None,,,,,part001,A,mattmann,2019_Mar_07_1924,Syllabification,3.0.5,60.07862634014836,
,,,,,,,,,filleritem4,campiña,solvencia,tovero,portento,tobillo,dedioro,puscalla,fascuna,vifema,nansaso,doncella,banzalla,fundillo,cunceza,numete,gentuza,mordaza,daviba,pargaza,bipero,cintura,taviño,vivero,pancarta,lectorio,pandilla,fondillo,pinchazo,torpeza,salchicha,zuscura,zarpazo,baldeblo,turquma,durmiente,persiana,fantarna,tocensia,nuseto,piltrafa,cicora,vigencia,banfalla,garbanzo,bercillo,cuntefa,luneta,lactancia,,,,,,,,,,,,,,,6,0,6,0,0,6,6,4,,,,,,,,,None,,,,,part001,A,mattmann,2019_Mar_07_1924,Syllabification,3.0.5,60.07862634014836,
,,,,,,,,,filleritem9,balbina,jinete,tonvanza,rejilla,teniente,fuztancia,punfullo,tenguga,nidero,fivancia,dominio,bimina,jarabe,cubteha,sufiasa,sepulcro,ciruelo,lultame,zuccancia,caljero,bigote,tercega,giralda,gotera,demonto,jaqueca,velero,tiniebla,sonido,barbecho,vuzarda,dureza,bardana,ruspina,ribera,navaja,manvera,torsanga,lisbombre,cilindro,cencera,vinilo,senrera,torija,lercuente,decibio,fineza,pizarra,,,,,,,,,,,,,,,6,0,6,0,0,7,7,9,,,,,,,,,None,,,,,part001,A,mattmann,2019_Mar_07_1924,Syllabification,3.0.5,60.07862634014836,
,,,,,,,,,filleritem1,pantalla,sandía,vofida,tejado,pintura,depite,cabsiva,poncilla,ricofo,palcillo,langosta,biluesa,narciso,tomida,tulvano,juntura,certeza,docado,hicuila,senena,zancada,parvida,gorguera,tinaja,tidioma,ventana,pescante,lumbrera,renombre,submundo,balzalla,tartana,divona,lirina,talante,zarzuela,nesedo,tifencio,salfrabla,zapato,denciña,bengala,tidencio,portillo,demida,soponso,punzada,testigo,,,,,,,,,,,,,,,6,0,6,0,0,8,8,1,,,,,,,,,None,,,,,part001,A,mattmann,2019_Mar_07_1924,Syllabification,3.0.5,60.07862634014836,
,,,,,,,,,filleritem3,cambiazo,ginebra,biñena,postigo,verdura,nenedo,sucema,nurese,perdisno,depiaro,gordura,gantarna,remiendo,civillo,nulese,ternura,fogata,bicera,tecillo,cosdura,ventaja,decanro,conducta,sandalia,bimena,palmada,filete,solera,semilla,vislumbre,dulcura,vereda,fivalia,gifema,ruptura,nevera,varime,ciroca,gantina,fastidio,vestolcio,ventisca,ducoste,respuesta,pirijuo,ruñansa,puntilla,poltrona,,,,,,,,,,,,,,,6,0,6,0,0,9,9,3,,,,,,,,,None,,,,,part001,A,mattmann,2019_Mar_07_1924,Syllabification,3.0.5,60.07862634014836,
,,,,,,,,,targetSyl,ro,per,cer,gan,cul,cam,mo,li,bol,co,pe,jo,bo,pas,gar,vol,pa,pes,mo,mur,jor,lin,pal,ce,ros,cor,cam,ga,bal,mo,cor,li,cos,ce,cen,co,cu,ga,pe,mor,pa,co,vo,lim,cas,ba,ca,mu,,,,,,,,,,,,,,,6,0,6,0,,,,,,,,,,,,,,,,,,part001,A,mattmann,2019_Mar_07_1924,Syllabification,3.0.5,60.07862634014836,
,,,,,,,,,filleritem9,balbina,jinete,tonvanza,rejilla,teniente,fuztancia,punfullo,tenguga,nidero,fivancia,dominio,bimina,jarabe,cubteha,sufiasa,sepulcro,ciruelo,lultame,zuccancia,caljero,bigote,tercega,giralda,gotera,demonto,jaqueca,velero,tiniebla,sonido,barbecho,vuzarda,dureza,bardana,ruspina,ribera,navaja,manvera,torsanga,lisbombre,cilindro,cencera,vinilo,senrera,torija,lercuente,decibio,fineza,pizarra,,,,,,,,,,,,,,,7,0,7,0,0,0,0,9,,,,,,,,,None,,,,,part001,A,mattmann,2019_Mar_07_1924,Syllabification,3.0.5,60.07862634014836,
,,,,,,,,,filleritem3,cambiazo,ginebra,biñena,postigo,verdura,nenedo,sucema,nurese,perdisno,depiaro,gordura,gantarna,remiendo,civillo,nulese,ternura,fogata,bicera,tecillo,cosdura,ventaja,decanro,conducta,sandalia,bimena,palmada,filete,solera,semilla,vislumbre,dulcura,vereda,fivalia,gifema,ruptura,nevera,varime,ciroca,gantina,fastidio,vestolcio,ventisca,ducoste,respuesta,pirijuo,ruñansa,puntilla,poltrona,,,,,,,,,,,,,,,7,0,7,0,0,1,1,3,,,,,,,,,None,,,,,part001,A,mattmann,2019_Mar_07_1924,Syllabification,3.0.5,60.07862634014836,
,,,,,,,,,filleritem8,veleta,juguete,fampioza,piragua,tesoro,sutmido,suñuela,reninso,canfleco,vinsenza,duquesa,vendagio,tetilla,duliste,pembanse,recado,gomina,gorente,viltancia,codoro,pupitre,tusorto,cigarra,pomada,talfrado,velorio,ribazo,sopapo,sotana,rapiña,vastimo,tocino,ventoble,lasgüenza,butaca,naranjo,fangurdo,zurdado,tivencio,vejiga,vobita,tisana,deroda,sureste,febago,fontama,rimero,tibieza,,,,,,,,,,,,,,,7,0,7,0,0,2,2,8,,,,,,,,,None,,,,,part001,A,mattmann,2019_Mar_07_1924,Syllabification,3.0.5,60.07862634014836,
,,,,,,,,,filleritem7,legajo,suceso,noñita,riqueza,fijeza,sunsanso,fensuale,costonche,tecterio,nastallo,jacinto,fuzallo,recato,rizgura,cuntela,tarima,rudeza,talaja,rucilla,siquija,vigilia,tornanga,regata,fajardo,canreza,salero,rebeca,cimiento,picota,resabio,puljida,recurso,mifena,tarbenga,lavabo,redada,dipona,berana,vicime,taquilla,donania,bufido,meptrona,barcaza,dilisia,dosbiente,tobera,dolencia,,,,,,,,,,,,,,,7,0,7,0,0,3,3,7,,,,,,,,,None,,,,,part001,A,mattmann,2019_Mar_07_1924,Syllabification,3.0.5,60.07862634014836,
,,,,,,,,,filleritem6,pileta,gusano,tunsuja,reliquia,tarjeta,tunruja,nacañe,fañeilla,recoltre,delido,laguna,tinneza,rastrillo,mingrago,mufenza,reducto,relente,tutmuja,fernuera,lastadia,piscina,poscallo,cornada,tinglado,fimallo,visillo,suspenso,tendencia,tersura,tufillo,binero,regazo,funclera,midena,viruela,viraje,permaza,tercajo,naverdo,vistazo,simedo,pesquisa,suseña,pozuelo,voltura,soreto,remanso,tapete,,,,,,,,,,,,,,,7,0,7,0,0,4,4,6,,,,,,,,,None,,,,,part001,A,mattmann,2019_Mar_07_1924,Syllabification,3.0.5,60.07862634014836,
,,,,,,,,,filleritem1,pantalla,sandía,vofida,tejado,pintura,depite,cabsiva,poncilla,ricofo,palcillo,langosta,biluesa,narciso,tomida,tulvano,juntura,certeza,docado,hicuila,senena,zancada,parvida,gorguera,tinaja,tidioma,ventana,pescante,lumbrera,renombre,submundo,balzalla,tartana,divona,lirina,talante,zarzuela,nesedo,tifencio,salfrabla,zapato,denciña,bengala,tidencio,portillo,demida,soponso,punzada,testigo,,,,,,,,,,,,,,,7,0,7,0,0,5,5,1,,,,,,,,,None,,,,,part001,A,mattmann,2019_Mar_07_1924,Syllabification,3.0.5,60.07862634014836,
,,,,,,,,,filleritem5,putada,jactancia,lunino,tortazo,vertiente,sobvondo,cicisa,ferfuera,nundero,tudala,fantoche,piglillo,farola,tecido,tildona,serpiente,mordisco,cabsero,cicaimo,civicha,tintero,pospana,fortuna,bolzano,denfiña,bandera,felpudo,mensaje,sortija,lectura,nafiaca,jasmina,venetlo,torsenza,burbuja,barbilla,norita,detnana,zaldizo,pulgada,sinvera,pulsera,sitena,soborno,penvalla,cicaigo,vendaje,vivencia,,,,,,,,,,,,,,,7,0,7,0,0,6,6,5,,,,,,,,,None,,,,,part001,A,mattmann,2019_Mar_07_1924,Syllabification,3.0.5,60.07862634014836,
,,,,,,,,,carrierItem,rosario,permiso,cerliza,ganchillo,culebra,camofa,morbollo,limucna,bolipo,corteta,peseta,joruma,bolsillo,paslolla,garventa,volante,pastilla,pesdeña,moniga,murdallo,joroba,linele,paloma,cereza,rosepio,corbata,camisa,garaje,baldosa,moneda,corura,linterna,cosiba,cenoca,centavo,costilla,culitra,ganquillo,periga,morera,palbira,corona,volpeje,limpieza,casgollo,balbusa,castillo,murmullo,,,,,,,,,,,,,,,7,0,7,0,0,7,7,0,,,,,,,,,y,0.6844906950000222,,,,part001,A,mattmann,2019_Mar_07_1924,Syllabification,3.0.5,60.07862634014836,
,,,,,,,,,filleritem2,lenguaje,soltura,moncura,zumbido,sarmiento,neteno,dinona,sobisco,rartanto,bitero,jilguero,cividra,gustillo,devita,cicauco,centeno,cordero,normaso,lisnombre,viztura,tumulto,sociare,gorjeo,sonrisa,cinsecho,bufete,pestillo,polvillo,tortuga,laxante,fimegra,portazo,mipcura,bitena,tornillo,perchero,dosgiente,pificha,canveta,venganza,cecaja,lanzazo,parsida,sobaco,nemeto,zictencia,mortaja,vestuario,,,,,,,,,,,,,,,7,0,7,0,0,8,8,2,,,,,,,,,None,,,,,part001,A,mattmann,2019_Mar_07_1924,Syllabification,3.0.5,60.07862634014836,
,,,,,,,,,filleritem4,campiña,solvencia,tovero,portento,tobillo,dedioro,puscalla,fascuna,vifema,nansaso,doncella,banzalla,fundillo,cunceza,numete,gentuza,mordaza,daviba,pargaza,bipero,cintura,taviño,vivero,pancarta,lectorio,pandilla,fondillo,pinchazo,torpeza,salchicha,zuscura,zarpazo,baldeblo,turquma,durmiente,persiana,fantarna,tocensia,nuseto,piltrafa,cicora,vigencia,banfalla,garbanzo,bercillo,cuntefa,luneta,lactancia,,,,,,,,,,,,,,,7,0,7,0,0,9,9,4,,,,,,,,,None,,,,,part001,A,mattmann,2019_Mar_07_1924,Syllabification,3.0.5,60.07862634014836,
,,,,,,,,,targetSyl,ro,per,cer,gan,cul,cam,mo,li,bol,co,pe,jo,bo,pas,gar,vol,pa,pes,mo,mur,jor,lin,pal,ce,ros,cor,cam,ga,bal,mo,cor,li,cos,ce,cen,co,cu,ga,pe,mor,pa,co,vo,lim,cas,ba,ca,mu,,,,,,,,,,,,,,,7,0,7,0,,,,,,,,,,,,,,,,,,part001,A,mattmann,2019_Mar_07_1924,Syllabification,3.0.5,60.07862634014836,
,,,,,,,,,filleritem5,putada,jactancia,lunino,tortazo,vertiente,sobvondo,cicisa,ferfuera,nundero,tudala,fantoche,piglillo,farola,tecido,tildona,serpiente,mordisco,cabsero,cicaimo,civicha,tintero,pospana,fortuna,bolzano,denfiña,bandera,felpudo,mensaje,sortija,lectura,nafiaca,jasmina,venetlo,torsenza,burbuja,barbilla,norita,detnana,zaldizo,pulgada,sinvera,pulsera,sitena,soborno,penvalla,cicaigo,vendaje,vivencia,,,,,,,,,,,,,,,8,0,8,0,0,0,0,5,,,,,,,,,None,,,,,part001,A,mattmann,2019_Mar_07_1924,Syllabification,3.0.5,60.07862634014836,
,,,,,,,,,filleritem1,pantalla,sandía,vofida,tejado,pintura,depite,cabsiva,poncilla,ricofo,palcillo,langosta,biluesa,narciso,tomida,tulvano,juntura,certeza,docado,hicuila,senena,zancada,parvida,gorguera,tinaja,tidioma,ventana,pescante,lumbrera,renombre,submundo,balzalla,tartana,divona,lirina,talante,zarzuela,nesedo,tifencio,salfrabla,zapato,denciña,bengala,tidencio,portillo,demida,soponso,punzada,testigo,,,,,,,,,,,,,,,8,0,8,0,0,1,1,1,,,,,,,,,None,,,,,part001,A,mattmann,2019_Mar_07_1924,Syllabification,3.0.5,60.07862634014836,
,,,,,,,,,filleritem3,cambiazo,ginebra,biñena,postigo,verdura,nenedo,sucema,nurese,perdisno,depiaro,gordura,gantarna,remiendo,civillo,nulese,ternura,fogata,bicera,tecillo,cosdura,ventaja,decanro,conducta,sandalia,bimena,palmada,filete,solera,semilla,vislumbre,dulcura,vereda,fivalia,gifema,ruptura,nevera,varime,ciroca,gantina,fastidio,vestolcio,ventisca,ducoste,respuesta,pirijuo,ruñansa,puntilla,poltrona,,,,,,,,,,,,,,,8,0,8,0,0,2,2,3,,,,,,,,,None,,,,,part001,A,mattmann,2019_Mar_07_1924,Syllabification,3.0.5,60.07862634014836,
,,,,,,,,,filleritem4,campiña,solvencia,tovero,portento,tobillo,dedioro,puscalla,fascuna,vifema,nansaso,doncella,banzalla,fundillo,cunceza,numete,gentuza,mordaza,daviba,pargaza,bipero,cintura,taviño,vivero,pancarta,lectorio,pandilla,fondillo,pinchazo,torpeza,salchicha,zuscura,zarpazo,baldeblo,turquma,durmiente,persiana,fantarna,tocensia,nuseto,piltrafa,cicora,vigencia,banfalla,garbanzo,bercillo,cuntefa,luneta,lactancia,,,,,,,,,,,,,,,8,0,8,0,0,3,3,4,,,,,,,,,None,,,,,part001,A,mattmann,2019_Mar_07_1924,Syllabification,3.0.5,60.07862634014836,
,,,,,,,,,filleritem9,balbina,jinete,tonvanza,rejilla,teniente,fuztancia,punfullo,tenguga,nidero,fivancia,dominio,bimina,jarabe,cubteha,sufiasa,sepulcro,ciruelo,lultame,zuccancia,caljero,bigote,tercega,giralda,gotera,demonto,jaqueca,velero,tiniebla,sonido,barbecho,vuzarda,dureza,bardana,ruspina,ribera,navaja,manvera,torsanga,lisbombre,cilindro,cencera,vinilo,senrera,torija,lercuente,decibio,fineza,pizarra,,,,,,,,,,,,,,,8,0,8,0,0,4,4,9,,,,,,,,,None,,,,,part001,A,mattmann,2019_Mar_07_1924,Syllabification,3.0.5,60.07862634014836,
,,,,,,,,,filleritem2,lenguaje,soltura,moncura,zumbido,sarmiento,neteno,dinona,sobisco,rartanto,bitero,jilguero,cividra,gustillo,devita,cicauco,centeno,cordero,normaso,lisnombre,viztura,tumulto,sociare,gorjeo,sonrisa,cinsecho,bufete,pestillo,polvillo,tortuga,laxante,fimegra,portazo,mipcura,bitena,tornillo,perchero,dosgiente,pificha,canveta,venganza,cecaja,lanzazo,parsida,sobaco,nemeto,zictencia,mortaja,vestuario,,,,,,,,,,,,,,,8,0,8,0,0,5,5,2,,,,,,,,,None,,,,,part001,A,mattmann,2019_Mar_07_1924,Syllabification,3.0.5,60.07862634014836,
,,,,,,,,,filleritem7,legajo,suceso,noñita,riqueza,fijeza,sunsanso,fensuale,costonche,tecterio,nastallo,jacinto,fuzallo,recato,rizgura,cuntela,tarima,rudeza,talaja,rucilla,siquija,vigilia,tornanga,regata,fajardo,canreza,salero,rebeca,cimiento,picota,resabio,puljida,recurso,mifena,tarbenga,lavabo,redada,dipona,berana,vicime,taquilla,donania,bufido,meptrona,barcaza,dilisia,dosbiente,tobera,dolencia,,,,,,,,,,,,,,,8,0,8,0,0,6,6,7,,,,,,,,,None,,,,,part001,A,mattmann,2019_Mar_07_1924,Syllabification,3.0.5,60.07862634014836,
,,,,,,,,,filleritem8,veleta,juguete,fampioza,piragua,tesoro,sutmido,suñuela,reninso,canfleco,vinsenza,duquesa,vendagio,tetilla,duliste,pembanse,recado,gomina,gorente,viltancia,codoro,pupitre,tusorto,cigarra,pomada,talfrado,velorio,ribazo,sopapo,sotana,rapiña,vastimo,tocino,ventoble,lasgüenza,butaca,naranjo,fangurdo,zurdado,tivencio,vejiga,vobita,tisana,deroda,sureste,febago,fontama,rimero,tibieza,,,,,,,,,,,,,,,8,0,8,0,0,7,7,8,,,,,,,,,None,,,,,part001,A,mattmann,2019_Mar_07_1924,Syllabification,3.0.5,60.07862634014836,
,,,,,,,,,filleritem6,pileta,gusano,tunsuja,reliquia,tarjeta,tunruja,nacañe,fañeilla,recoltre,delido,laguna,tinneza,rastrillo,mingrago,mufenza,reducto,relente,tutmuja,fernuera,lastadia,piscina,poscallo,cornada,tinglado,fimallo,visillo,suspenso,tendencia,tersura,tufillo,binero,regazo,funclera,midena,viruela,viraje,permaza,tercajo,naverdo,vistazo,simedo,pesquisa,suseña,pozuelo,voltura,soreto,remanso,tapete,,,,,,,,,,,,,,,8,0,8,0,0,8,8,6,,,,,,,,,None,,,,,part001,A,mattmann,2019_Mar_07_1924,Syllabification,3.0.5,60.07862634014836,
,,,,,,,,,carrierItem,rosario,permiso,cerliza,ganchillo,culebra,camofa,morbollo,limucna,bolipo,corteta,peseta,joruma,bolsillo,paslolla,garventa,volante,pastilla,pesdeña,moniga,murdallo,joroba,linele,paloma,cereza,rosepio,corbata,camisa,garaje,baldosa,moneda,corura,linterna,cosiba,cenoca,centavo,costilla,culitra,ganquillo,periga,morera,palbira,corona,volpeje,limpieza,casgollo,balbusa,castillo,murmullo,,,,,,,,,,,,,,,8,0,8,0,0,9,9,0,,,,,,,,,y,0.6023722469999484,,,,part001,A,mattmann,2019_Mar_07_1924,Syllabification,3.0.5,60.07862634014836,
,,,,,,,,,targetSyl,ro,per,cer,gan,cul,cam,mo,li,bol,co,pe,jo,bo,pas,gar,vol,pa,pes,mo,mur,jor,lin,pal,ce,ros,cor,cam,ga,bal,mo,cor,li,cos,ce,cen,co,cu,ga,pe,mor,pa,co,vo,lim,cas,ba,ca,mu,,,,,,,,,,,,,,,8,0,8,0,,,,,,,,,,,,,,,,,,part001,A,mattmann,2019_Mar_07_1924,Syllabification,3.0.5,60.07862634014836,
,,,,,,,,,filleritem4,campiña,solvencia,tovero,portento,tobillo,dedioro,puscalla,fascuna,vifema,nansaso,doncella,banzalla,fundillo,cunceza,numete,gentuza,mordaza,daviba,pargaza,bipero,cintura,taviño,vivero,pancarta,lectorio,pandilla,fondillo,pinchazo,torpeza,salchicha,zuscura,zarpazo,baldeblo,turquma,durmiente,persiana,fantarna,tocensia,nuseto,piltrafa,cicora,vigencia,banfalla,garbanzo,bercillo,cuntefa,luneta,lactancia,,,,,,,,,,,,,,,9,0,9,0,0,0,0,4,,,,,,,,,y,1.0507959259998643,,,,part001,A,mattmann,2019_Mar_07_1924,Syllabification,3.0.5,60.07862634014836,
,,,,,,,,,filleritem1,pantalla,sandía,vofida,tejado,pintura,depite,cabsiva,poncilla,ricofo,palcillo,langosta,biluesa,narciso,tomida,tulvano,juntura,certeza,docado,hicuila,senena,zancada,parvida,gorguera,tinaja,tidioma,ventana,pescante,lumbrera,renombre,submundo,balzalla,tartana,divona,lirina,talante,zarzuela,nesedo,tifencio,salfrabla,zapato,denciña,bengala,tidencio,portillo,demida,soponso,punzada,testigo,,,,,,,,,,,,,,,9,0,9,0,0,1,1,1,,,,,,,,,None,,,,,part001,A,mattmann,2019_Mar_07_1924,Syllabification,3.0.5,60.07862634014836,
,,,,,,,,,filleritem3,cambiazo,ginebra,biñena,postigo,verdura,nenedo,sucema,nurese,perdisno,depiaro,gordura,gantarna,remiendo,civillo,nulese,ternura,fogata,bicera,tecillo,cosdura,ventaja,decanro,conducta,sandalia,bimena,palmada,filete,solera,semilla,vislumbre,dulcura,vereda,fivalia,gifema,ruptura,nevera,varime,ciroca,gantina,fastidio,vestolcio,ventisca,ducoste,respuesta,pirijuo,ruñansa,puntilla,poltrona,,,,,,,,,,,,,,,9,0,9,0,0,2,2,3,,,,,,,,,None,,,,,part001,A,mattmann,2019_Mar_07_1924,Syllabification,3.0.5,60.07862634014836,
,,,,,,,,,carrierItem,rosario,permiso,cerliza,ganchillo,culebra,camofa,morbollo,limucna,bolipo,corteta,peseta,joruma,bolsillo,paslolla,garventa,volante,pastilla,pesdeña,moniga,murdallo,joroba,linele,paloma,cereza,rosepio,corbata,camisa,garaje,baldosa,moneda,corura,linterna,cosiba,cenoca,centavo,costilla,culitra,ganquillo,periga,morera,palbira,corona,volpeje,limpieza,casgollo,balbusa,castillo,murmullo,,,,,,,,,,,,,,,9,0,9,0,0,3,3,0,,,,,,,,,y,0.8339231089998975,,,,part001,A,mattmann,2019_Mar_07_1924,Syllabification,3.0.5,60.07862634014836,
,,,,,,,,,filleritem2,lenguaje,soltura,moncura,zumbido,sarmiento,neteno,dinona,sobisco,rartanto,bitero,jilguero,cividra,gustillo,devita,cicauco,centeno,cordero,normaso,lisnombre,viztura,tumulto,sociare,gorjeo,sonrisa,cinsecho,bufete,pestillo,polvillo,tortuga,laxante,fimegra,portazo,mipcura,bitena,tornillo,perchero,dosgiente,pificha,canveta,venganza,cecaja,lanzazo,parsida,sobaco,nemeto,zictencia,mortaja,vestuario,,,,,,,,,,,,,,,9,0,9,0,0,4,4,2,,,,,,,,,None,,,,,part001,A,mattmann,2019_Mar_07_1924,Syllabification,3.0.5,60.07862634014836,
,,,,,,,,,filleritem6,pileta,gusano,tunsuja,reliquia,tarjeta,tunruja,nacañe,fañeilla,recoltre,delido,laguna,tinneza,rastrillo,mingrago,mufenza,reducto,relente,tutmuja,fernuera,lastadia,piscina,poscallo,cornada,tinglado,fimallo,visillo,suspenso,tendencia,tersura,tufillo,binero,regazo,funclera,midena,viruela,viraje,permaza,tercajo,naverdo,vistazo,simedo,pesquisa,suseña,pozuelo,voltura,soreto,remanso,tapete,,,,,,,,,,,,,,,9,0,9,0,0,5,5,6,,,,,,,,,None,,,,,part001,A,mattmann,2019_Mar_07_1924,Syllabification,3.0.5,60.07862634014836,
,,,,,,,,,filleritem8,veleta,juguete,fampioza,piragua,tesoro,sutmido,suñuela,reninso,canfleco,vinsenza,duquesa,vendagio,tetilla,duliste,pembanse,recado,gomina,gorente,viltancia,codoro,pupitre,tusorto,cigarra,pomada,talfrado,velorio,ribazo,sopapo,sotana,rapiña,vastimo,tocino,ventoble,lasgüenza,butaca,naranjo,fangurdo,zurdado,tivencio,vejiga,vobita,tisana,deroda,sureste,febago,fontama,rimero,tibieza,,,,,,,,,,,,,,,9,0,9,0,0,6,6,8,,,,,,,,,None,,,,,part001,A,mattmann,2019_Mar_07_1924,Syllabification,3.0.5,60.07862634014836,
,,,,,,,,,filleritem5,putada,jactancia,lunino,tortazo,vertiente,sobvondo,cicisa,ferfuera,nundero,tudala,fantoche,piglillo,farola,tecido,tildona,serpiente,mordisco,cabsero,cicaimo,civicha,tintero,pospana,fortuna,bolzano,denfiña,bandera,felpudo,mensaje,sortija,lectura,nafiaca,jasmina,venetlo,torsenza,burbuja,barbilla,norita,detnana,zaldizo,pulgada,sinvera,pulsera,sitena,soborno,penvalla,cicaigo,vendaje,vivencia,,,,,,,,,,,,,,,9,0,9,0,0,7,7,5,,,,,,,,,None,,,,,part001,A,mattmann,2019_Mar_07_1924,Syllabification,3.0.5,60.07862634014836,
,,,,,,,,,filleritem9,balbina,jinete,tonvanza,rejilla,teniente,fuztancia,punfullo,tenguga,nidero,fivancia,dominio,bimina,jarabe,cubteha,sufiasa,sepulcro,ciruelo,lultame,zuccancia,caljero,bigote,tercega,giralda,gotera,demonto,jaqueca,velero,tiniebla,sonido,barbecho,vuzarda,dureza,bardana,ruspina,ribera,navaja,manvera,torsanga,lisbombre,cilindro,cencera,vinilo,senrera,torija,lercuente,decibio,fineza,pizarra,,,,,,,,,,,,,,,9,0,9,0,0,8,8,9,,,,,,,,,None,,,,,part001,A,mattmann,2019_Mar_07_1924,Syllabification,3.0.5,60.07862634014836,
,,,,,,,,,filleritem7,legajo,suceso,noñita,riqueza,fijeza,sunsanso,fensuale,costonche,tecterio,nastallo,jacinto,fuzallo,recato,rizgura,cuntela,tarima,rudeza,talaja,rucilla,siquija,vigilia,tornanga,regata,fajardo,canreza,salero,rebeca,cimiento,picota,resabio,puljida,recurso,mifena,tarbenga,lavabo,redada,dipona,berana,vicime,taquilla,donania,bufido,meptrona,barcaza,dilisia,dosbiente,tobera,dolencia,,,,,,,,,,,,,,,9,0,9,0,0,9,9,7,,,,,,,,,None,,,,,part001,A,mattmann,2019_Mar_07_1924,Syllabification,3.0.5,60.07862634014836,
,,,,,,,,,targetSyl,ro,per,cer,gan,cul,cam,mo,li,bol,co,pe,jo,bo,pas,gar,vol,pa,pes,mo,mur,jor,lin,pal,ce,ros,cor,cam,ga,bal,mo,cor,li,cos,ce,cen,co,cu,ga,pe,mor,pa,co,vo,lim,cas,ba,ca,mu,,,,,,,,,,,,,,,9,0,9,0,,,,,,,,,,,,,,,,,,part001,A,mattmann,2019_Mar_07_1924,Syllabification,3.0.5,60.07862634014836,
,,,,,,,,,filleritem9,balbina,jinete,tonvanza,rejilla,teniente,fuztancia,punfullo,tenguga,nidero,fivancia,dominio,bimina,jarabe,cubteha,sufiasa,sepulcro,ciruelo,lultame,zuccancia,caljero,bigote,tercega,giralda,gotera,demonto,jaqueca,velero,tiniebla,sonido,barbecho,vuzarda,dureza,bardana,ruspina,ribera,navaja,manvera,torsanga,lisbombre,cilindro,cencera,vinilo,senrera,torija,lercuente,decibio,fineza,pizarra,,,,,,,,,,,,,,,10,0,10,0,0,0,0,9,,,,,,,,,None,,,,,part001,A,mattmann,2019_Mar_07_1924,Syllabification,3.0.5,60.07862634014836,
,,,,,,,,,filleritem8,veleta,juguete,fampioza,piragua,tesoro,sutmido,suñuela,reninso,canfleco,vinsenza,duquesa,vendagio,tetilla,duliste,pembanse,recado,gomina,gorente,viltancia,codoro,pupitre,tusorto,cigarra,pomada,talfrado,velorio,ribazo,sopapo,sotana,rapiña,vastimo,tocino,ventoble,lasgüenza,butaca,naranjo,fangurdo,zurdado,tivencio,vejiga,vobita,tisana,deroda,sureste,febago,fontama,rimero,tibieza,,,,,,,,,,,,,,,10,0,10,0,0,1,1,8,,,,,,,,,None,,,,,part001,A,mattmann,2019_Mar_07_1924,Syllabification,3.0.5,60.07862634014836,
,,,,,,,,,filleritem4,campiña,solvencia,tovero,portento,tobillo,dedioro,puscalla,fascuna,vifema,nansaso,doncella,banzalla,fundillo,cunceza,numete,gentuza,mordaza,daviba,pargaza,bipero,cintura,taviño,vivero,pancarta,lectorio,pandilla,fondillo,pinchazo,torpeza,salchicha,zuscura,zarpazo,baldeblo,turquma,durmiente,persiana,fantarna,tocensia,nuseto,piltrafa,cicora,vigencia,banfalla,garbanzo,bercillo,cuntefa,luneta,lactancia,,,,,,,,,,,,,,,10,0,10,0,0,2,2,4,,,,,,,,,None,,,,,part001,A,mattmann,2019_Mar_07_1924,Syllabification,3.0.5,60.07862634014836,
,,,,,,,,,filleritem2,lenguaje,soltura,moncura,zumbido,sarmiento,neteno,dinona,sobisco,rartanto,bitero,jilguero,cividra,gustillo,devita,cicauco,centeno,cordero,normaso,lisnombre,viztura,tumulto,sociare,gorjeo,sonrisa,cinsecho,bufete,pestillo,polvillo,tortuga,laxante,fimegra,portazo,mipcura,bitena,tornillo,perchero,dosgiente,pificha,canveta,venganza,cecaja,lanzazo,parsida,sobaco,nemeto,zictencia,mortaja,vestuario,,,,,,,,,,,,,,,10,0,10,0,0,3,3,2,,,,,,,,,None,,,,,part001,A,mattmann,2019_Mar_07_1924,Syllabification,3.0.5,60.07862634014836,
,,,,,,,,,filleritem6,pileta,gusano,tunsuja,reliquia,tarjeta,tunruja,nacañe,fañeilla,recoltre,delido,laguna,tinneza,rastrillo,mingrago,mufenza,reducto,relente,tutmuja,fernuera,lastadia,piscina,poscallo,cornada,tinglado,fimallo,visillo,suspenso,tendencia,tersura,tufillo,binero,regazo,funclera,midena,viruela,viraje,permaza,tercajo,naverdo,vistazo,simedo,pesquisa,suseña,pozuelo,voltura,soreto,remanso,tapete,,,,,,,,,,,,,,,10,0,10,0,0,4,4,6,,,,,,,,,None,,,,,part001,A,mattmann,2019_Mar_07_1924,Syllabification,3.0.5,60.07862634014836,
,,,,,,,,,filleritem5,putada,jactancia,lunino,tortazo,vertiente,sobvondo,cicisa,ferfuera,nundero,tudala,fantoche,piglillo,farola,tecido,tildona,serpiente,mordisco,cabsero,cicaimo,civicha,tintero,pospana,fortuna,bolzano,denfiña,bandera,felpudo,mensaje,sortija,lectura,nafiaca,jasmina,venetlo,torsenza,burbuja,barbilla,norita,detnana,zaldizo,pulgada,sinvera,pulsera,sitena,soborno,penvalla,cicaigo,vendaje,vivencia,,,,,,,,,,,,,,,10,0,10,0,0,5,5,5,,,,,,,,,None,,,,,part001,A,mattmann,2019_Mar_07_1924,Syllabification,3.0.5,60.07862634014836,
,,,,,,,,,carrierItem,rosario,permiso,cerliza,ganchillo,culebra,camofa,morbollo,limucna,bolipo,corteta,peseta,joruma,bolsillo,paslolla,garventa,volante,pastilla,pesdeña,moniga,murdallo,joroba,linele,paloma,cereza,rosepio,corbata,camisa,garaje,baldosa,moneda,corura,linterna,cosiba,cenoca,centavo,costilla,culitra,ganquillo,periga,morera,palbira,corona,volpeje,limpieza,casgollo,balbusa,castillo,murmullo,,,,,,,,,,,,,,,10,0,10,0,0,6,6,0,,,,,,,,,y,0.7017916200002219,,,,part001,A,mattmann,2019_Mar_07_1924,Syllabification,3.0.5,60.07862634014836,
,,,,,,,,,filleritem3,cambiazo,ginebra,biñena,postigo,verdura,nenedo,sucema,nurese,perdisno,depiaro,gordura,gantarna,remiendo,civillo,nulese,ternura,fogata,bicera,tecillo,cosdura,ventaja,decanro,conducta,sandalia,bimena,palmada,filete,solera,semilla,vislumbre,dulcura,vereda,fivalia,gifema,ruptura,nevera,varime,ciroca,gantina,fastidio,vestolcio,ventisca,ducoste,respuesta,pirijuo,ruñansa,puntilla,poltrona,,,,,,,,,,,,,,,10,0,10,0,0,7,7,3,,,,,,,,,None,,,,,part001,A,mattmann,2019_Mar_07_1924,Syllabification,3.0.5,60.07862634014836,
,,,,,,,,,filleritem1,pantalla,sandía,vofida,tejado,pintura,depite,cabsiva,poncilla,ricofo,palcillo,langosta,biluesa,narciso,tomida,tulvano,juntura,certeza,docado,hicuila,senena,zancada,parvida,gorguera,tinaja,tidioma,ventana,pescante,lumbrera,renombre,submundo,balzalla,tartana,divona,lirina,talante,zarzuela,nesedo,tifencio,salfrabla,zapato,denciña,bengala,tidencio,portillo,demida,soponso,punzada,testigo,,,,,,,,,,,,,,,10,0,10,0,0,8,8,1,,,,,,,,,None,,,,,part001,A,mattmann,2019_Mar_07_1924,Syllabification,3.0.5,60.07862634014836,
,,,,,,,,,filleritem7,legajo,suceso,noñita,riqueza,fijeza,sunsanso,fensuale,costonche,tecterio,nastallo,jacinto,fuzallo,recato,rizgura,cuntela,tarima,rudeza,talaja,rucilla,siquija,vigilia,tornanga,regata,fajardo,canreza,salero,rebeca,cimiento,picota,resabio,puljida,recurso,mifena,tarbenga,lavabo,redada,dipona,berana,vicime,taquilla,donania,bufido,meptrona,barcaza,dilisia,dosbiente,tobera,dolencia,,,,,,,,,,,,,,,10,0,10,0,0,9,9,7,,,,,,,,,None,,,,,part001,A,mattmann,2019_Mar_07_1924,Syllabification,3.0.5,60.07862634014836,
,,,,,,,,,targetSyl,ro,per,cer,gan,cul,cam,mo,li,bol,co,pe,jo,bo,pas,gar,vol,pa,pes,mo,mur,jor,lin,pal,ce,ros,cor,cam,ga,bal,mo,cor,li,cos,ce,cen,co,cu,ga,pe,mor,pa,co,vo,lim,cas,ba,ca,mu,,,,,,,,,,,,,,,10,0,10,0,,,,,,,,,,,,,,,,,,part001,A,mattmann,2019_Mar_07_1924,Syllabification,3.0.5,60.07862634014836,
,,,,,,,,,filleritem1,pantalla,sandía,vofida,tejado,pintura,depite,cabsiva,poncilla,ricofo,palcillo,langosta,biluesa,narciso,tomida,tulvano,juntura,certeza,docado,hicuila,senena,zancada,parvida,gorguera,tinaja,tidioma,ventana,pescante,lumbrera,renombre,submundo,balzalla,tartana,divona,lirina,talante,zarzuela,nesedo,tifencio,salfrabla,zapato,denciña,bengala,tidencio,portillo,demida,soponso,punzada,testigo,,,,,,,,,,,,,,,11,0,11,0,0,0,0,1,,,,,,,,,None,,,,,part001,A,mattmann,2019_Mar_07_1924,Syllabification,3.0.5,60.07862634014836,
,,,,,,,,,filleritem3,cambiazo,ginebra,biñena,postigo,verdura,nenedo,sucema,nurese,perdisno,depiaro,gordura,gantarna,remiendo,civillo,nulese,ternura,fogata,bicera,tecillo,cosdura,ventaja,decanro,conducta,sandalia,bimena,palmada,filete,solera,semilla,vislumbre,dulcura,vereda,fivalia,gifema,ruptura,nevera,varime,ciroca,gantina,fastidio,vestolcio,ventisca,ducoste,respuesta,pirijuo,ruñansa,puntilla,poltrona,,,,,,,,,,,,,,,11,0,11,0,0,1,1,3,,,,,,,,,None,,,,,part001,A,mattmann,2019_Mar_07_1924,Syllabification,3.0.5,60.07862634014836,
,,,,,,,,,filleritem4,campiña,solvencia,tovero,portento,tobillo,dedioro,puscalla,fascuna,vifema,nansaso,doncella,banzalla,fundillo,cunceza,numete,gentuza,mordaza,daviba,pargaza,bipero,cintura,taviño,vivero,pancarta,lectorio,pandilla,fondillo,pinchazo,torpeza,salchicha,zuscura,zarpazo,baldeblo,turquma,durmiente,persiana,fantarna,tocensia,nuseto,piltrafa,cicora,vigencia,banfalla,garbanzo,bercillo,cuntefa,luneta,lactancia,,,,,,,,,,,,,,,11,0,11,0,0,2,2,4,,,,,,,,,None,,,,,part001,A,mattmann,2019_Mar_07_1924,Syllabification,3.0.5,60.07862634014836,
,,,,,,,,,filleritem6,pileta,gusano,tunsuja,reliquia,tarjeta,tunruja,nacañe,fañeilla,recoltre,delido,laguna,tinneza,rastrillo,mingrago,mufenza,reducto,relente,tutmuja,fernuera,lastadia,piscina,poscallo,cornada,tinglado,fimallo,visillo,suspenso,tendencia,tersura,tufillo,binero,regazo,funclera,midena,viruela,viraje,permaza,tercajo,naverdo,vistazo,simedo,pesquisa,suseña,pozuelo,voltura,soreto,remanso,tapete,,,,,,,,,,,,,,,11,0,11,0,0,3,3,6,,,,,,,,,None,,,,,part001,A,mattmann,2019_Mar_07_1924,Syllabification,3.0.5,60.07862634014836,
,,,,,,,,,carrierItem,rosario,permiso,cerliza,ganchillo,culebra,camofa,morbollo,limucna,bolipo,corteta,peseta,joruma,bolsillo,paslolla,garventa,volante,pastilla,pesdeña,moniga,murdallo,joroba,linele,paloma,cereza,rosepio,corbata,camisa,garaje,baldosa,moneda,corura,linterna,cosiba,cenoca,centavo,costilla,culitra,ganquillo,periga,morera,palbira,corona,volpeje,limpieza,casgollo,balbusa,castillo,murmullo,,,,,,,,,,,,,,,11,0,11,0,0,4,4,0,,,,,,,,,y,0.7353762839998126,,,,part001,A,mattmann,2019_Mar_07_1924,Syllabification,3.0.5,60.07862634014836,
,,,,,,,,,filleritem8,veleta,juguete,fampioza,piragua,tesoro,sutmido,suñuela,reninso,canfleco,vinsenza,duquesa,vendagio,tetilla,duliste,pembanse,recado,gomina,gorente,viltancia,codoro,pupitre,tusorto,cigarra,pomada,talfrado,velorio,ribazo,sopapo,sotana,rapiña,vastimo,tocino,ventoble,lasgüenza,butaca,naranjo,fangurdo,zurdado,tivencio,vejiga,vobita,tisana,deroda,sureste,febago,fontama,rimero,tibieza,,,,,,,,,,,,,,,11,0,11,0,0,5,5,8,,,,,,,,,None,,,,,part001,A,mattmann,2019_Mar_07_1924,Syllabification,3.0.5,60.07862634014836,
,,,,,,,,,filleritem5,putada,jactancia,lunino,tortazo,vertiente,sobvondo,cicisa,ferfuera,nundero,tudala,fantoche,piglillo,farola,tecido,tildona,serpiente,mordisco,cabsero,cicaimo,civicha,tintero,pospana,fortuna,bolzano,denfiña,bandera,felpudo,mensaje,sortija,lectura,nafiaca,jasmina,venetlo,torsenza,burbuja,barbilla,norita,detnana,zaldizo,pulgada,sinvera,pulsera,sitena,soborno,penvalla,cicaigo,vendaje,vivencia,,,,,,,,,,,,,,,11,0,11,0,0,6,6,5,,,,,,,,,None,,,,,part001,A,mattmann,2019_Mar_07_1924,Syllabification,3.0.5,60.07862634014836,
,,,,,,,,,filleritem7,legajo,suceso,noñita,riqueza,fijeza,sunsanso,fensuale,costonche,tecterio,nastallo,jacinto,fuzallo,recato,rizgura,cuntela,tarima,rudeza,talaja,rucilla,siquija,vigilia,tornanga,regata,fajardo,canreza,salero,rebeca,cimiento,picota,resabio,puljida,recurso,mifena,tarbenga,lavabo,redada,dipona,berana,vicime,taquilla,donania,bufido,meptrona,barcaza,dilisia,dosbiente,tobera,dolencia,,,,,,,,,,,,,,,11,0,11,0,0,7,7,7,,,,,,,,,None,,,,,part001,A,mattmann,2019_Mar_07_1924,Syllabification,3.0.5,60.07862634014836,
,,,,,,,,,filleritem9,balbina,jinete,tonvanza,rejilla,teniente,fuztancia,punfullo,tenguga,nidero,fivancia,dominio,bimina,jarabe,cubteha,sufiasa,sepulcro,ciruelo,lultame,zuccancia,caljero,bigote,tercega,giralda,gotera,demonto,jaqueca,velero,tiniebla,sonido,barbecho,vuzarda,dureza,bardana,ruspina,ribera,navaja,manvera,torsanga,lisbombre,cilindro,cencera,vinilo,senrera,torija,lercuente,decibio,fineza,pizarra,,,,,,,,,,,,,,,11,0,11,0,0,8,8,9,,,,,,,,,None,,,,,part001,A,mattmann,2019_Mar_07_1924,Syllabification,3.0.5,60.07862634014836,
,,,,,,,,,filleritem2,lenguaje,soltura,moncura,zumbido,sarmiento,neteno,dinona,sobisco,rartanto,bitero,jilguero,cividra,gustillo,devita,cicauco,centeno,cordero,normaso,lisnombre,viztura,tumulto,sociare,gorjeo,sonrisa,cinsecho,bufete,pestillo,polvillo,tortuga,laxante,fimegra,portazo,mipcura,bitena,tornillo,perchero,dosgiente,pificha,canveta,venganza,cecaja,lanzazo,parsida,sobaco,nemeto,zictencia,mortaja,vestuario,,,,,,,,,,,,,,,11,0,11,0,0,9,9,2,,,,,,,,,None,,,,,part001,A,mattmann,2019_Mar_07_1924,Syllabification,3.0.5,60.07862634014836,
,,,,,,,,,targetSyl,ro,per,cer,gan,cul,cam,mo,li,bol,co,pe,jo,bo,pas,gar,vol,pa,pes,mo,mur,jor,lin,pal,ce,ros,cor,cam,ga,bal,mo,cor,li,cos,ce,cen,co,cu,ga,pe,mor,pa,co,vo,lim,cas,ba,ca,mu,,,,,,,,,,,,,,,11,0,11,0,,,,,,,,,,,,,,,,,,part001,A,mattmann,2019_Mar_07_1924,Syllabification,3.0.5,60.07862634014836,
,,,,,,,,,filleritem1,pantalla,sandía,vofida,tejado,pintura,depite,cabsiva,poncilla,ricofo,palcillo,langosta,biluesa,narciso,tomida,tulvano,juntura,certeza,docado,hicuila,senena,zancada,parvida,gorguera,tinaja,tidioma,ventana,pescante,lumbrera,renombre,submundo,balzalla,tartana,divona,lirina,talante,zarzuela,nesedo,tifencio,salfrabla,zapato,denciña,bengala,tidencio,portillo,demida,soponso,punzada,testigo,,,,,,,,,,,,,,,12,0,12,0,0,0,0,1,,,,,,,,,None,,,,,part001,A,mattmann,2019_Mar_07_1924,Syllabification,3.0.5,60.07862634014836,
,,,,,,,,,filleritem7,legajo,suceso,noñita,riqueza,fijeza,sunsanso,fensuale,costonche,tecterio,nastallo,jacinto,fuzallo,recato,rizgura,cuntela,tarima,rudeza,talaja,rucilla,siquija,vigilia,tornanga,regata,fajardo,canreza,salero,rebeca,cimiento,picota,resabio,puljida,recurso,mifena,tarbenga,lavabo,redada,dipona,berana,vicime,taquilla,donania,bufido,meptrona,barcaza,dilisia,dosbiente,tobera,dolencia,,,,,,,,,,,,,,,12,0,12,0,0,1,1,7,,,,,,,,,None,,,,,part001,A,mattmann,2019_Mar_07_1924,Syllabification,3.0.5,60.07862634014836,
,,,,,,,,,filleritem5,putada,jactancia,lunino,tortazo,vertiente,sobvondo,cicisa,ferfuera,nundero,tudala,fantoche,piglillo,farola,tecido,tildona,serpiente,mordisco,cabsero,cicaimo,civicha,tintero,pospana,fortuna,bolzano,denfiña,bandera,felpudo,mensaje,sortija,lectura,nafiaca,jasmina,venetlo,torsenza,burbuja,barbilla,norita,detnana,zaldizo,pulgada,sinvera,pulsera,sitena,soborno,penvalla,cicaigo,vendaje,vivencia,,,,,,,,,,,,,,,12,0,12,0,0,2,2,5,,,,,,,,,None,,,,,part001,A,mattmann,2019_Mar_07_1924,Syllabification,3.0.5,60.07862634014836,
,,,,,,,,,filleritem8,veleta,juguete,fampioza,piragua,tesoro,sutmido,suñuela,reninso,canfleco,vinsenza,duquesa,vendagio,tetilla,duliste,pembanse,recado,gomina,gorente,viltancia,codoro,pupitre,tusorto,cigarra,pomada,talfrado,velorio,ribazo,sopapo,sotana,rapiña,vastimo,tocino,ventoble,lasgüenza,butaca,naranjo,fangurdo,zurdado,tivencio,vejiga,vobita,tisana,deroda,sureste,febago,fontama,rimero,tibieza,,,,,,,,,,,,,,,12,0,12,0,0,3,3,8,,,,,,,,,None,,,,,part001,A,mattmann,2019_Mar_07_1924,Syllabification,3.0.5,60.07862634014836,
,,,,,,,,,filleritem3,cambiazo,ginebra,biñena,postigo,verdura,nenedo,sucema,nurese,perdisno,depiaro,gordura,gantarna,remiendo,civillo,nulese,ternura,fogata,bicera,tecillo,cosdura,ventaja,decanro,conducta,sandalia,bimena,palmada,filete,solera,semilla,vislumbre,dulcura,vereda,fivalia,gifema,ruptura,nevera,varime,ciroca,gantina,fastidio,vestolcio,ventisca,ducoste,respuesta,pirijuo,ruñansa,puntilla,poltrona,,,,,,,,,,,,,,,12,0,12,0,0,4,4,3,,,,,,,,,None,,,,,part001,A,mattmann,2019_Mar_07_1924,Syllabification,3.0.5,60.07862634014836,
,,,,,,,,,filleritem2,lenguaje,soltura,moncura,zumbido,sarmiento,neteno,dinona,sobisco,rartanto,bitero,jilguero,cividra,gustillo,devita,cicauco,centeno,cordero,normaso,lisnombre,viztura,tumulto,sociare,gorjeo,sonrisa,cinsecho,bufete,pestillo,polvillo,tortuga,laxante,fimegra,portazo,mipcura,bitena,tornillo,perchero,dosgiente,pificha,canveta,venganza,cecaja,lanzazo,parsida,sobaco,nemeto,zictencia,mortaja,vestuario,,,,,,,,,,,,,,,12,0,12,0,0,5,5,2,,,,,,,,,None,,,,,part001,A,mattmann,2019_Mar_07_1924,Syllabification,3.0.5,60.07862634014836,
,,,,,,,,,filleritem4,campiña,solvencia,tovero,portento,tobillo,dedioro,puscalla,fascuna,vifema,nansaso,doncella,banzalla,fundillo,cunceza,numete,gentuza,mordaza,daviba,pargaza,bipero,cintura,taviño,vivero,pancarta,lectorio,pandilla,fondillo,pinchazo,torpeza,salchicha,zuscura,zarpazo,baldeblo,turquma,durmiente,persiana,fantarna,tocensia,nuseto,piltrafa,cicora,vigencia,banfalla,garbanzo,bercillo,cuntefa,luneta,lactancia,,,,,,,,,,,,,,,12,0,12,0,0,6,6,4,,,,,,,,,None,,,,,part001,A,mattmann,2019_Mar_07_1924,Syllabification,3.0.5,60.07862634014836,
,,,,,,,,,filleritem9,balbina,jinete,tonvanza,rejilla,teniente,fuztancia,punfullo,tenguga,nidero,fivancia,dominio,bimina,jarabe,cubteha,sufiasa,sepulcro,ciruelo,lultame,zuccancia,caljero,bigote,tercega,giralda,gotera,demonto,jaqueca,velero,tiniebla,sonido,barbecho,vuzarda,dureza,bardana,ruspina,ribera,navaja,manvera,torsanga,lisbombre,cilindro,cencera,vinilo,senrera,torija,lercuente,decibio,fineza,pizarra,,,,,,,,,,,,,,,12,0,12,0,0,7,7,9,,,,,,,,,None,,,,,part001,A,mattmann,2019_Mar_07_1924,Syllabification,3.0.5,60.07862634014836,
,,,,,,,,,carrierItem,rosario,permiso,cerliza,ganchillo,culebra,camofa,morbollo,limucna,bolipo,corteta,peseta,joruma,bolsillo,paslolla,garventa,volante,pastilla,pesdeña,moniga,murdallo,joroba,linele,paloma,cereza,rosepio,corbata,camisa,garaje,baldosa,moneda,corura,linterna,cosiba,cenoca,centavo,costilla,culitra,ganquillo,periga,morera,palbira,corona,volpeje,limpieza,casgollo,balbusa,castillo,murmullo,,,,,,,,,,,,,,,12,0,12,0,0,8,8,0,,,,,,,,,y,0.684736920999967,,,,part001,A,mattmann,2019_Mar_07_1924,Syllabification,3.0.5,60.07862634014836,
,,,,,,,,,filleritem6,pileta,gusano,tunsuja,reliquia,tarjeta,tunruja,nacañe,fañeilla,recoltre,delido,laguna,tinneza,rastrillo,mingrago,mufenza,reducto,relente,tutmuja,fernuera,lastadia,piscina,poscallo,cornada,tinglado,fimallo,visillo,suspenso,tendencia,tersura,tufillo,binero,regazo,funclera,midena,viruela,viraje,permaza,tercajo,naverdo,vistazo,simedo,pesquisa,suseña,pozuelo,voltura,soreto,remanso,tapete,,,,,,,,,,,,,,,12,0,12,0,0,9,9,6,,,,,,,,,None,,,,,part001,A,mattmann,2019_Mar_07_1924,Syllabification,3.0.5,60.07862634014836,
,,,,,,,,,targetSyl,ro,per,cer,gan,cul,cam,mo,li,bol,co,pe,jo,bo,pas,gar,vol,pa,pes,mo,mur,jor,lin,pal,ce,ros,cor,cam,ga,bal,mo,cor,li,cos,ce,cen,co,cu,ga,pe,mor,pa,co,vo,lim,cas,ba,ca,mu,,,,,,,,,,,,,,,12,0,12,0,,,,,,,,,,,,,,,,,,part001,A,mattmann,2019_Mar_07_1924,Syllabification,3.0.5,60.07862634014836,
,,,,,,,,,filleritem1,pantalla,sandía,vofida,tejado,pintura,depite,cabsiva,poncilla,ricofo,palcillo,langosta,biluesa,narciso,tomida,tulvano,juntura,certeza,docado,hicuila,senena,zancada,parvida,gorguera,tinaja,tidioma,ventana,pescante,lumbrera,renombre,submundo,balzalla,tartana,divona,lirina,talante,zarzuela,nesedo,tifencio,salfrabla,zapato,denciña,bengala,tidencio,portillo,demida,soponso,punzada,testigo,,,,,,,,,,,,,,,13,0,13,0,0,0,0,1,,,,,,,,,None,,,,,part001,A,mattmann,2019_Mar_07_1924,Syllabification,3.0.5,60.07862634014836,
,,,,,,,,,filleritem2,lenguaje,soltura,moncura,zumbido,sarmiento,neteno,dinona,sobisco,rartanto,bitero,jilguero,cividra,gustillo,devita,cicauco,centeno,cordero,normaso,lisnombre,viztura,tumulto,sociare,gorjeo,sonrisa,cinsecho,bufete,pestillo,polvillo,tortuga,laxante,fimegra,portazo,mipcura,bitena,tornillo,perchero,dosgiente,pificha,canveta,venganza,cecaja,lanzazo,parsida,sobaco,nemeto,zictencia,mortaja,vestuario,,,,,,,,,,,,,,,13,0,13,0,0,1,1,2,,,,,,,,,None,,,,,part001,A,mattmann,2019_Mar_07_1924,Syllabification,3.0.5,60.07862634014836,
,,,,,,,,,filleritem3,cambiazo,ginebra,biñena,postigo,verdura,nenedo,sucema,nurese,perdisno,depiaro,gordura,gantarna,remiendo,civillo,nulese,ternura,fogata,bicera,tecillo,cosdura,ventaja,decanro,conducta,sandalia,bimena,palmada,filete,solera,semilla,vislumbre,dulcura,vereda,fivalia,gifema,ruptura,nevera,varime,ciroca,gantina,fastidio,vestolcio,ventisca,ducoste,respuesta,pirijuo,ruñansa,puntilla,poltrona,,,,,,,,,,,,,,,13,0,13,0,0,2,2,3,,,,,,,,,None,,,,,part001,A,mattmann,2019_Mar_07_1924,Syllabification,3.0.5,60.07862634014836,
,,,,,,,,,filleritem6,pileta,gusano,tunsuja,reliquia,tarjeta,tunruja,nacañe,fañeilla,recoltre,delido,laguna,tinneza,rastrillo,mingrago,mufenza,reducto,relente,tutmuja,fernuera,lastadia,piscina,poscallo,cornada,tinglado,fimallo,visillo,suspenso,tendencia,tersura,tufillo,binero,regazo,funclera,midena,viruela,viraje,permaza,tercajo,naverdo,vistazo,simedo,pesquisa,suseña,pozuelo,voltura,soreto,remanso,tapete,,,,,,,,,,,,,,,13,0,13,0,0,3,3,6,,,,,,,,,None,,,,,part001,A,mattmann,2019_Mar_07_1924,Syllabification,3.0.5,60.07862634014836,
,,,,,,,,,carrierItem,rosario,permiso,cerliza,ganchillo,culebra,camofa,morbollo,limucna,bolipo,corteta,peseta,joruma,bolsillo,paslolla,garventa,volante,pastilla,pesdeña,moniga,murdallo,joroba,linele,paloma,cereza,rosepio,corbata,camisa,garaje,baldosa,moneda,corura,linterna,cosiba,cenoca,centavo,costilla,culitra,ganquillo,periga,morera,palbira,corona,volpeje,limpieza,casgollo,balbusa,castillo,murmullo,,,,,,,,,,,,,,,13,0,13,0,0,4,4,0,,,,,,,,,y,0.6837458210002296,,,,part001,A,mattmann,2019_Mar_07_1924,Syllabification,3.0.5,60.07862634014836,
,,,,,,,,,filleritem9,balbina,jinete,tonvanza,rejilla,teniente,fuztancia,punfullo,tenguga,nidero,fivancia,dominio,bimina,jarabe,cubteha,sufiasa,sepulcro,ciruelo,lultame,zuccancia,caljero,bigote,tercega,giralda,gotera,demonto,jaqueca,velero,tiniebla,sonido,barbecho,vuzarda,dureza,bardana,ruspina,ribera,navaja,manvera,torsanga,lisbombre,cilindro,cencera,vinilo,senrera,torija,lercuente,decibio,fineza,pizarra,,,,,,,,,,,,,,,13,0,13,0,0,5,5,9,,,,,,,,,None,,,,,part001,A,mattmann,2019_Mar_07_1924,Syllabification,3.0.5,60.07862634014836,
,,,,,,,,,filleritem5,putada,jactancia,lunino,tortazo,vertiente,sobvondo,cicisa,ferfuera,nundero,tudala,fantoche,piglillo,farola,tecido,tildona,serpiente,mordisco,cabsero,cicaimo,civicha,tintero,pospana,fortuna,bolzano,denfiña,bandera,felpudo,mensaje,sortija,lectura,nafiaca,jasmina,venetlo,torsenza,burbuja,barbilla,norita,detnana,zaldizo,pulgada,sinvera,pulsera,sitena,soborno,penvalla,cicaigo,vendaje,vivencia,,,,,,,,,,,,,,,13,0,13,0,0,6,6,5,,,,,,,,,None,,,,,part001,A,mattmann,2019_Mar_07_1924,Syllabification,3.0.5,60.07862634014836,
