stimuliPractice0,stimuliPractice1,stimuliList,stimuliA0,stimuliA1,stimuliA2,stimuliA3,stimuliA4,stimuliA5,stimuliA6,stimuliA7,stimuliA8,stimuliA9,stimuliA10,stimuliA11,stimuliA12,stimuliA13,stimuliA14,stimuliA15,stimuliA16,stimuliA17,stimuliA18,stimuliA19,stimuliA20,stimuliA21,stimuliA22,stimuliA23,syllabification,corrSyl,corrAns,keyCVC,keyCV,pracTarLoop.thisRepN,pracTarLoop.thisTrialN,pracTarLoop.thisN,pracTarLoop.thisIndex,pracTrialLoop.thisRepN,pracTrialLoop.thisTrialN,pracTrialLoop.thisN,pracTrialLoop.thisIndex,expTarLoop.thisRepN,expTarLoop.thisTrialN,expTarLoop.thisN,expTarLoop.thisIndex,expTrialLoop.thisRepN,expTrialLoop.thisTrialN,expTrialLoop.thisN,expTrialLoop.thisIndex,sylPracLoop.thisRepN,sylPracLoop.thisTrialN,sylPracLoop.thisN,sylPracLoop.thisIndex,syllableLoop.thisRepN,syllableLoop.thisTrialN,syllableLoop.thisN,syllableLoop.thisIndex,startPrac.keys,startPrac.rt,startExpTrials.keys,startExpTrials.rt,exp_key_resp.keys,exp_key_resp.rt,sylPracStart.keys,sylPracStart.rt,sylExpStart.keys,sylExpStart.rt,sylExp_key_resp.keys,sylExp_key_resp.corr,sylExp_key_resp.rt,participant,session,date,expName,psychopyVersion,frameRate,
,,,,,,,,,,,,,,,,,,,,,,,,,,,,,,,,,,,,,,,,,,,,,,,,,,,,,,,,space,4.178051525002957,,,,,,,,,,,,part003,A,2019_Feb_27_1504,Syllabification,3.0.5,60.08579590743604,
zarcillo,jasmina,,,,,,,,,,,,,,,,,,,,,,,,,,,,,,,0,0,0,0,0,0,0,3,,,,,,,,,,,,,,,,,,,,,,,,,,,,,,part003,A,2019_Feb_27_1504,Syllabification,3.0.5,60.08579590743604,
ponencia,sandalia,,,,,,,,,,,,,,,,,,,,,,,,,,,,,,,0,0,0,0,0,1,1,6,,,,,,,,,,,,,,,,,,,,,,,,,,,,,,part003,A,2019_Feb_27_1504,Syllabification,3.0.5,60.08579590743604,
jarana,jaqueca,,,,,,,,,,,,,,,,,,,,,,,,,,,,,,,0,0,0,0,0,2,2,9,,,,,,,,,,,,,,,,,,,,,,,,,,,,,,part003,A,2019_Feb_27_1504,Syllabification,3.0.5,60.08579590743604,
secano,pocilga,,,,,,,,,,,,,,,,,,,,,,,,,,,,,,,0,0,0,0,0,3,3,11,,,,,,,,,,,,,,,,,,,,,,,,,,,,,,part003,A,2019_Feb_27_1504,Syllabification,3.0.5,60.08579590743604,
pandilla,suspenso,,,,,,,,,,,,,,,,,,,,,,,,,,,,,,,0,0,0,0,0,4,4,5,,,,,,,,,,,,,,,,,,,,,,,,,,,,,,part003,A,2019_Feb_27_1504,Syllabification,3.0.5,60.08579590743604,
cornisa,zarzuela,,,,,,,,,,,,,,,,,,,,,,,,,,,,,,,0,0,0,0,0,5,5,1,,,,,,,,,,,,,,,,,,,,,,,,,,,,,,part003,A,2019_Feb_27_1504,Syllabification,3.0.5,60.08579590743604,
ranura,piropo,,,,,,,,,,,,,,,,,,,,,,,,,,,,,,,0,0,0,0,0,6,6,7,,,,,,,,,,,,,,,,,,,,,,,,,,,,,,part003,A,2019_Feb_27_1504,Syllabification,3.0.5,60.08579590743604,
sarcasmo,pancarta,,,,,,,,,,,,,,,,,,,,,,,,,,,,,,,0,0,0,0,0,7,7,4,,,,,,,,,,,,,,,,,,,,,,,,,,,,,,part003,A,2019_Feb_27_1504,Syllabification,3.0.5,60.08579590743604,
fondillo,captura,,,,,,,,,,,,,,,,,,,,,,,,,,,,,,,0,0,0,0,0,8,8,2,,,,,,,,,,,,,,,,,,,,,,,,,,,,,,part003,A,2019_Feb_27_1504,Syllabification,3.0.5,60.08579590743604,
deltoides,delirio,,,,,,,,,,,,,,,,,,,,,,,,,,,,,,,0,0,0,0,0,9,9,0,,,,,,,,,,,,,,,,,,,,,,,,,,,,,,part003,A,2019_Feb_27_1504,Syllabification,3.0.5,60.08579590743604,
pimienta,cirilo,,,,,,,,,,,,,,,,,,,,,,,,,,,,,,,0,0,0,0,0,10,10,8,,,,,,,,,,,,,,,,,,,,,,,,,,,,,,part003,A,2019_Feb_27_1504,Syllabification,3.0.5,60.08579590743604,
pimiento,piragua,,,,,,,,,,,,,,,,,,,,,,,,,,,,,,,0,0,0,0,0,11,11,10,,,,,,,,,,,,,,,,,,,,,,,,,,,,,,part003,A,2019_Feb_27_1504,Syllabification,3.0.5,60.08579590743604,
del,de,,,,,,,,,,,,,,,,,,,,,,,,,,,,,,,0,0,0,0,,,,,,,,,,,,,,,,,,,,,,,,,,,,,,,,,,part003,A,2019_Feb_27_1504,Syllabification,3.0.5,60.08579590743604,
fondillo,captura,,,,,,,,,,,,,,,,,,,,,,,,,,,,,,,1,0,1,0,0,0,0,2,,,,,,,,,,,,,,,,,,,,,,,,,,,,,,part003,A,2019_Feb_27_1504,Syllabification,3.0.5,60.08579590743604,
pandilla,suspenso,,,,,,,,,,,,,,,,,,,,,,,,,,,,,,,1,0,1,0,0,1,1,5,,,,,,,,,,,,,,,,,,,,,,,,,,,,,,part003,A,2019_Feb_27_1504,Syllabification,3.0.5,60.08579590743604,
sarcasmo,pancarta,,,,,,,,,,,,,,,,,,,,,,,,,,,,,,,1,0,1,0,0,2,2,4,,,,,,,,,,,,,,,,,,,,,,,,,,,,,,part003,A,2019_Feb_27_1504,Syllabification,3.0.5,60.08579590743604,
deltoides,delirio,,,,,,,,,,,,,,,,,,,,,,,,,,,,,,,1,0,1,0,0,3,3,0,,,,,,,,,,,,,,,,,,,,,,,,,,,,,,part003,A,2019_Feb_27_1504,Syllabification,3.0.5,60.08579590743604,
pimienta,cirilo,,,,,,,,,,,,,,,,,,,,,,,,,,,,,,,1,0,1,0,0,4,4,8,,,,,,,,,,,,,,,,,,,,,,,,,,,,,,part003,A,2019_Feb_27_1504,Syllabification,3.0.5,60.08579590743604,
ponencia,sandalia,,,,,,,,,,,,,,,,,,,,,,,,,,,,,,,1,0,1,0,0,5,5,6,,,,,,,,,,,,,,,,,,,,,,,,,,,,,,part003,A,2019_Feb_27_1504,Syllabification,3.0.5,60.08579590743604,
zarcillo,jasmina,,,,,,,,,,,,,,,,,,,,,,,,,,,,,,,1,0,1,0,0,6,6,3,,,,,,,,,,,,,,,,,,,,,,,,,,,,,,part003,A,2019_Feb_27_1504,Syllabification,3.0.5,60.08579590743604,
cornisa,zarzuela,,,,,,,,,,,,,,,,,,,,,,,,,,,,,,,1,0,1,0,0,7,7,1,,,,,,,,,,,,,,,,,,,,,,,,,,,,,,part003,A,2019_Feb_27_1504,Syllabification,3.0.5,60.08579590743604,
secano,pocilga,,,,,,,,,,,,,,,,,,,,,,,,,,,,,,,1,0,1,0,0,8,8,11,,,,,,,,,,,,,,,,,,,,,,,,,,,,,,part003,A,2019_Feb_27_1504,Syllabification,3.0.5,60.08579590743604,
pimiento,piragua,,,,,,,,,,,,,,,,,,,,,,,,,,,,,,,1,0,1,0,0,9,9,10,,,,,,,,,,,,,,,,,,,,,,,,,,,,,,part003,A,2019_Feb_27_1504,Syllabification,3.0.5,60.08579590743604,
jarana,jaqueca,,,,,,,,,,,,,,,,,,,,,,,,,,,,,,,1,0,1,0,0,10,10,9,,,,,,,,,,,,,,,,,,,,,,,,,,,,,,part003,A,2019_Feb_27_1504,Syllabification,3.0.5,60.08579590743604,
ranura,piropo,,,,,,,,,,,,,,,,,,,,,,,,,,,,,,,1,0,1,0,0,11,11,7,,,,,,,,,,,,,,,,,,,,,,,,,,,,,,part003,A,2019_Feb_27_1504,Syllabification,3.0.5,60.08579590743604,
del,de,,,,,,,,,,,,,,,,,,,,,,,,,,,,,,,1,0,1,0,,,,,,,,,,,,,,,,,,,,,,,,,,,,,,,,,,part003,A,2019_Feb_27_1504,Syllabification,3.0.5,60.08579590743604,
,,,,,,,,,,,,,,,,,,,,,,,,,,,,,,,,,,,,,,,,,,,,,,,,,,,,,,,,,,space,1.5815817980001157,,,,,,,,,,part003,A,2019_Feb_27_1504,Syllabification,3.0.5,60.08579590743604,
,,carrierItem,ganchillo,pestaña,pereza,morera,murmullo,joroba,culebra,centavo,volante,balada,linterna,bolero,castillo,paloma,montaña,campana,garaje,corona,costilla,rosquilla,pastilla,limpieza,cereza,coraje,,,,,,,,,,,,,,0,0,0,0,0,0,0,0,,,,,,,,,,,,,None,,,,,,,,,part003,A,2019_Feb_27_1504,Syllabification,3.0.5,60.08579590743604,
,,fillerItem4,portento,doncella,solvencia,piltrafa,lactancia,cintura,tortazo,durmiente,gentuza,torpeza,zarpazo,fundillo,lenteja,costumbre,salchicha,cernuda,pinchazo,vendimia,persiana,campiña,mordaza,garbanzo,confianza,percance,,,,,,,,,,,,,,0,0,0,0,0,1,1,4,,,,,,,,,,,,,y,0.1209521839991794,,,,,,,,part003,A,2019_Feb_27_1504,Syllabification,3.0.5,60.08579590743604,
,,fillerItem10,soneto,dureza,ginebra,zapato,vivencia,tumulto,tobillo,vivienda,reducto,renombre,vereda,farola,luneta,regato,rivera,velorio,solera,vigencia,barbecho,vivero,fogata,sobaco,tinaja,bufete,,,,,,,,,,,,,,0,0,0,0,0,2,2,10,,,,,,,,,,,,,None,,,,,,,,,part003,A,2019_Feb_27_1504,Syllabification,3.0.5,60.08579590743604,
,,fillerItem6,reliquia,laguna,subsuelo,vistazo,tapete,piscina,tarjeta,viruela,rasguño,tersura,regazo,rastrillo,remanso,cornada,tufillo,cizalla,tendencia,pesquisa,viraje,pileta,relente,pozuelo,pescuezo,bastilla,,,,,,,,,,,,,,0,0,0,0,0,3,3,6,,,,,,,,,,,,,None,,,,,,,,,part003,A,2019_Feb_27_1504,Syllabification,3.0.5,60.08579590743604,
,,fillerItem1,ternera,langosta,sandía,pulsera,testigo,zancada,pintura,tardanza,juntura,rendija,tartana,narciso,punzada,gorguera,submundo,pescante,lumbrera,bengala,victoria,pantalla,certeza,portillo,congreso,ventana,,,,,,,,,,,,,,0,0,0,0,0,4,4,1,,,,,,,,,,,,,None,,,,,,,,,part003,A,2019_Feb_27_1504,Syllabification,3.0.5,60.08579590743604,
,,fillerItem5,sendero,fantoche,jactancia,pulgada,vestigio,tintero,vertiente,burbuja,serpiente,sortija,polvera,farsante,vendaje,fortuna,lectura,felpudo,mensaje,cencerro,barbilla,putada,mordisco,corneta,bolzano,bandera,,,,,,,,,,,,,,0,0,0,0,0,5,5,5,,,,,,,,,,,,,None,,,,,,,,,part003,A,2019_Feb_27_1504,Syllabification,3.0.5,60.08579590743604,
,,fillerItem7,riqueza,jacinto,suceso,taquilla,dolencia,vigilia,fijeza,lavabo,tarima,picota,recurso,recato,tobera,regata,resabio,rebeca,cimiento,bufido,redada,legajo,rudeza,barcaza,fajardo,salero,,,,,,,,,,,,,,0,0,0,0,0,6,6,7,,,,,,,,,,,,,None,,,,,,,,,part003,A,2019_Feb_27_1504,Syllabification,3.0.5,60.08579590743604,
,,fillerItem11,tejado,cigarro,gusano,secuela,silicio,bufanda,pureza,talante,recinto,semilla,tocino,remiendo,remesa,regate,tisana,gozada,pujanza,visera,nevera,tijera,donaire,soborno,pineda,visillo,,,,,,,,,,,,,,0,0,0,0,0,7,7,11,,,,,,,,,,,,,None,,,,,,,,,part003,A,2019_Feb_27_1504,Syllabification,3.0.5,60.08579590743604,
,,fillerItem3,postigo,gordura,silbido,fastidio,poltrona,ventaja,verdura,ruptura,ternura,sordera,vergüenza,tumbona,puntilla,conducta,vislumbre,filete,lenguado,ventisca,perfidia,cambiazo,cordura,respuesta,concepto,palmada,,,,,,,,,,,,,,0,0,0,0,0,8,8,3,,,,,,,,,,,,,None,,,,,,,,,part003,A,2019_Feb_27_1504,Syllabification,3.0.5,60.08579590743604,
,,fillerItem9,rejilla,dominio,jinete,cilindro,pizarra,bigote,teniente,ribera,sepulcro,sonido,recodo,jarabe,fineza,giralda,tesina,velero,tiniebla,vinilo,navaja,pitillo,ciruelo,torija,gotera,becerro,,,,,,,,,,,,,,0,0,0,0,0,9,9,9,,,,,,,,,,,,,None,,,,,,,,,part003,A,2019_Feb_27_1504,Syllabification,3.0.5,60.08579590743604,
,,fillerItem2,zumbido,jilguero,soltura,venganza,vestuario,tinglado,sarmiento,tornillo,largueza,tortuga,portazo,gustillo,mortaja,gorjeo,laxante,pestillo,polvillo,lanzazo,perchero,lenguaje,cordero,sonrisa,campaña,balbina,,,,,,,,,,,,,,0,0,0,0,0,10,10,2,,,,,,,,,,,,,None,,,,,,,,,part003,A,2019_Feb_27_1504,Syllabification,3.0.5,60.08579590743604,
,,fillerItem8,poniente,duquesa,juguete,vejiga,tibieza,pupitre,tesoro,butaca,recado,sotana,reguero,tetilla,rimero,cigarra,rapiña,ribazo,sopapo,cigoto,naranjo,veleta,gomina,sureste,pomada,lucero,,,,,,,,,,,,,,0,0,0,0,0,11,11,8,,,,,,,,,,,,,None,,,,,,,,,part003,A,2019_Feb_27_1504,Syllabification,3.0.5,60.08579590743604,
,,targetSyl,ga,pes,per,mor,mu,jo,cu,cen,vol,ba,li,bo,ca,pal,mon,ca,gar,cor,co,ros,pas,lim,ce,co,,,,,,,,,,,,,,0,0,0,0,,,,,,,,,,,,,,,,,,,,,,,,,,part003,A,2019_Feb_27_1504,Syllabification,3.0.5,60.08579590743604,
,,fillerItem10,soneto,dureza,ginebra,zapato,vivencia,tumulto,tobillo,vivienda,reducto,renombre,vereda,farola,luneta,regato,rivera,velorio,solera,vigencia,barbecho,vivero,fogata,sobaco,tinaja,bufete,,,,,,,,,,,,,,1,0,1,0,0,0,0,10,,,,,,,,,,,,,None,,,,,,,,,part003,A,2019_Feb_27_1504,Syllabification,3.0.5,60.08579590743604,
,,fillerItem3,postigo,gordura,silbido,fastidio,poltrona,ventaja,verdura,ruptura,ternura,sordera,vergüenza,tumbona,puntilla,conducta,vislumbre,filete,lenguado,ventisca,perfidia,cambiazo,cordura,respuesta,concepto,palmada,,,,,,,,,,,,,,1,0,1,0,0,1,1,3,,,,,,,,,,,,,None,,,,,,,,,part003,A,2019_Feb_27_1504,Syllabification,3.0.5,60.08579590743604,
,,fillerItem2,zumbido,jilguero,soltura,venganza,vestuario,tinglado,sarmiento,tornillo,largueza,tortuga,portazo,gustillo,mortaja,gorjeo,laxante,pestillo,polvillo,lanzazo,perchero,lenguaje,cordero,sonrisa,campaña,balbina,,,,,,,,,,,,,,1,0,1,0,0,2,2,2,,,,,,,,,,,,,None,,,,,,,,,part003,A,2019_Feb_27_1504,Syllabification,3.0.5,60.08579590743604,
,,fillerItem4,portento,doncella,solvencia,piltrafa,lactancia,cintura,tortazo,durmiente,gentuza,torpeza,zarpazo,fundillo,lenteja,costumbre,salchicha,cernuda,pinchazo,vendimia,persiana,campiña,mordaza,garbanzo,confianza,percance,,,,,,,,,,,,,,1,0,1,0,0,3,3,4,,,,,,,,,,,,,None,,,,,,,,,part003,A,2019_Feb_27_1504,Syllabification,3.0.5,60.08579590743604,
,,carrierItem,ganchillo,pestaña,pereza,morera,murmullo,joroba,culebra,centavo,volante,balada,linterna,bolero,castillo,paloma,montaña,campana,garaje,corona,costilla,rosquilla,pastilla,limpieza,cereza,coraje,,,,,,,,,,,,,,1,0,1,0,0,4,4,0,,,,,,,,,,,,,None,,,,,,,,,part003,A,2019_Feb_27_1504,Syllabification,3.0.5,60.08579590743604,
,,fillerItem5,sendero,fantoche,jactancia,pulgada,vestigio,tintero,vertiente,burbuja,serpiente,sortija,polvera,farsante,vendaje,fortuna,lectura,felpudo,mensaje,cencerro,barbilla,putada,mordisco,corneta,bolzano,bandera,,,,,,,,,,,,,,1,0,1,0,0,5,5,5,,,,,,,,,,,,,None,,,,,,,,,part003,A,2019_Feb_27_1504,Syllabification,3.0.5,60.08579590743604,
,,fillerItem11,tejado,cigarro,gusano,secuela,silicio,bufanda,pureza,talante,recinto,semilla,tocino,remiendo,remesa,regate,tisana,gozada,pujanza,visera,nevera,tijera,donaire,soborno,pineda,visillo,,,,,,,,,,,,,,1,0,1,0,0,6,6,11,,,,,,,,,,,,,None,,,,,,,,,part003,A,2019_Feb_27_1504,Syllabification,3.0.5,60.08579590743604,
,,fillerItem1,ternera,langosta,sandía,pulsera,testigo,zancada,pintura,tardanza,juntura,rendija,tartana,narciso,punzada,gorguera,submundo,pescante,lumbrera,bengala,victoria,pantalla,certeza,portillo,congreso,ventana,,,,,,,,,,,,,,1,0,1,0,0,7,7,1,,,,,,,,,,,,,None,,,,,,,,,part003,A,2019_Feb_27_1504,Syllabification,3.0.5,60.08579590743604,
,,fillerItem7,riqueza,jacinto,suceso,taquilla,dolencia,vigilia,fijeza,lavabo,tarima,picota,recurso,recato,tobera,regata,resabio,rebeca,cimiento,bufido,redada,legajo,rudeza,barcaza,fajardo,salero,,,,,,,,,,,,,,1,0,1,0,0,8,8,7,,,,,,,,,,,,,None,,,,,,,,,part003,A,2019_Feb_27_1504,Syllabification,3.0.5,60.08579590743604,
,,fillerItem6,reliquia,laguna,subsuelo,vistazo,tapete,piscina,tarjeta,viruela,rasguño,tersura,regazo,rastrillo,remanso,cornada,tufillo,cizalla,tendencia,pesquisa,viraje,pileta,relente,pozuelo,pescuezo,bastilla,,,,,,,,,,,,,,1,0,1,0,0,9,9,6,,,,,,,,,,,,,None,,,,,,,,,part003,A,2019_Feb_27_1504,Syllabification,3.0.5,60.08579590743604,
,,fillerItem9,rejilla,dominio,jinete,cilindro,pizarra,bigote,teniente,ribera,sepulcro,sonido,recodo,jarabe,fineza,giralda,tesina,velero,tiniebla,vinilo,navaja,pitillo,ciruelo,torija,gotera,becerro,,,,,,,,,,,,,,1,0,1,0,0,10,10,9,,,,,,,,,,,,,None,,,,,,,,,part003,A,2019_Feb_27_1504,Syllabification,3.0.5,60.08579590743604,
,,fillerItem8,poniente,duquesa,juguete,vejiga,tibieza,pupitre,tesoro,butaca,recado,sotana,reguero,tetilla,rimero,cigarra,rapiña,ribazo,sopapo,cigoto,naranjo,veleta,gomina,sureste,pomada,lucero,,,,,,,,,,,,,,1,0,1,0,0,11,11,8,,,,,,,,,,,,,None,,,,,,,,,part003,A,2019_Feb_27_1504,Syllabification,3.0.5,60.08579590743604,
,,targetSyl,ga,pes,per,mor,mu,jo,cu,cen,vol,ba,li,bo,ca,pal,mon,ca,gar,cor,co,ros,pas,lim,ce,co,,,,,,,,,,,,,,1,0,1,0,,,,,,,,,,,,,,,,,,,,,,,,,,part003,A,2019_Feb_27_1504,Syllabification,3.0.5,60.08579590743604,
,,fillerItem8,poniente,duquesa,juguete,vejiga,tibieza,pupitre,tesoro,butaca,recado,sotana,reguero,tetilla,rimero,cigarra,rapiña,ribazo,sopapo,cigoto,naranjo,veleta,gomina,sureste,pomada,lucero,,,,,,,,,,,,,,2,0,2,0,0,0,0,8,,,,,,,,,,,,,None,,,,,,,,,part003,A,2019_Feb_27_1504,Syllabification,3.0.5,60.08579590743604,
,,fillerItem10,soneto,dureza,ginebra,zapato,vivencia,tumulto,tobillo,vivienda,reducto,renombre,vereda,farola,luneta,regato,rivera,velorio,solera,vigencia,barbecho,vivero,fogata,sobaco,tinaja,bufete,,,,,,,,,,,,,,2,0,2,0,0,1,1,10,,,,,,,,,,,,,None,,,,,,,,,part003,A,2019_Feb_27_1504,Syllabification,3.0.5,60.08579590743604,
,,fillerItem4,portento,doncella,solvencia,piltrafa,lactancia,cintura,tortazo,durmiente,gentuza,torpeza,zarpazo,fundillo,lenteja,costumbre,salchicha,cernuda,pinchazo,vendimia,persiana,campiña,mordaza,garbanzo,confianza,percance,,,,,,,,,,,,,,2,0,2,0,0,2,2,4,,,,,,,,,,,,,None,,,,,,,,,part003,A,2019_Feb_27_1504,Syllabification,3.0.5,60.08579590743604,
,,carrierItem,ganchillo,pestaña,pereza,morera,murmullo,joroba,culebra,centavo,volante,balada,linterna,bolero,castillo,paloma,montaña,campana,garaje,corona,costilla,rosquilla,pastilla,limpieza,cereza,coraje,,,,,,,,,,,,,,2,0,2,0,0,3,3,0,,,,,,,,,,,,,None,,,,,,,,,part003,A,2019_Feb_27_1504,Syllabification,3.0.5,60.08579590743604,
,,fillerItem11,tejado,cigarro,gusano,secuela,silicio,bufanda,pureza,talante,recinto,semilla,tocino,remiendo,remesa,regate,tisana,gozada,pujanza,visera,nevera,tijera,donaire,soborno,pineda,visillo,,,,,,,,,,,,,,2,0,2,0,0,4,4,11,,,,,,,,,,,,,y,0.02061619899905054,,,,,,,,part003,A,2019_Feb_27_1504,Syllabification,3.0.5,60.08579590743604,
,,fillerItem2,zumbido,jilguero,soltura,venganza,vestuario,tinglado,sarmiento,tornillo,largueza,tortuga,portazo,gustillo,mortaja,gorjeo,laxante,pestillo,polvillo,lanzazo,perchero,lenguaje,cordero,sonrisa,campaña,balbina,,,,,,,,,,,,,,2,0,2,0,0,5,5,2,,,,,,,,,,,,,None,,,,,,,,,part003,A,2019_Feb_27_1504,Syllabification,3.0.5,60.08579590743604,
,,fillerItem7,riqueza,jacinto,suceso,taquilla,dolencia,vigilia,fijeza,lavabo,tarima,picota,recurso,recato,tobera,regata,resabio,rebeca,cimiento,bufido,redada,legajo,rudeza,barcaza,fajardo,salero,,,,,,,,,,,,,,2,0,2,0,0,6,6,7,,,,,,,,,,,,,None,,,,,,,,,part003,A,2019_Feb_27_1504,Syllabification,3.0.5,60.08579590743604,
,,fillerItem5,sendero,fantoche,jactancia,pulgada,vestigio,tintero,vertiente,burbuja,serpiente,sortija,polvera,farsante,vendaje,fortuna,lectura,felpudo,mensaje,cencerro,barbilla,putada,mordisco,corneta,bolzano,bandera,,,,,,,,,,,,,,2,0,2,0,0,7,7,5,,,,,,,,,,,,,None,,,,,,,,,part003,A,2019_Feb_27_1504,Syllabification,3.0.5,60.08579590743604,
,,fillerItem1,ternera,langosta,sandía,pulsera,testigo,zancada,pintura,tardanza,juntura,rendija,tartana,narciso,punzada,gorguera,submundo,pescante,lumbrera,bengala,victoria,pantalla,certeza,portillo,congreso,ventana,,,,,,,,,,,,,,2,0,2,0,0,8,8,1,,,,,,,,,,,,,None,,,,,,,,,part003,A,2019_Feb_27_1504,Syllabification,3.0.5,60.08579590743604,
,,fillerItem9,rejilla,dominio,jinete,cilindro,pizarra,bigote,teniente,ribera,sepulcro,sonido,recodo,jarabe,fineza,giralda,tesina,velero,tiniebla,vinilo,navaja,pitillo,ciruelo,torija,gotera,becerro,,,,,,,,,,,,,,2,0,2,0,0,9,9,9,,,,,,,,,,,,,None,,,,,,,,,part003,A,2019_Feb_27_1504,Syllabification,3.0.5,60.08579590743604,
,,fillerItem3,postigo,gordura,silbido,fastidio,poltrona,ventaja,verdura,ruptura,ternura,sordera,vergüenza,tumbona,puntilla,conducta,vislumbre,filete,lenguado,ventisca,perfidia,cambiazo,cordura,respuesta,concepto,palmada,,,,,,,,,,,,,,2,0,2,0,0,10,10,3,,,,,,,,,,,,,None,,,,,,,,,part003,A,2019_Feb_27_1504,Syllabification,3.0.5,60.08579590743604,
,,fillerItem6,reliquia,laguna,subsuelo,vistazo,tapete,piscina,tarjeta,viruela,rasguño,tersura,regazo,rastrillo,remanso,cornada,tufillo,cizalla,tendencia,pesquisa,viraje,pileta,relente,pozuelo,pescuezo,bastilla,,,,,,,,,,,,,,2,0,2,0,0,11,11,6,,,,,,,,,,,,,None,,,,,,,,,part003,A,2019_Feb_27_1504,Syllabification,3.0.5,60.08579590743604,
,,targetSyl,ga,pes,per,mor,mu,jo,cu,cen,vol,ba,li,bo,ca,pal,mon,ca,gar,cor,co,ros,pas,lim,ce,co,,,,,,,,,,,,,,2,0,2,0,,,,,,,,,,,,,,,,,,,,,,,,,,part003,A,2019_Feb_27_1504,Syllabification,3.0.5,60.08579590743604,
,,fillerItem9,rejilla,dominio,jinete,cilindro,pizarra,bigote,teniente,ribera,sepulcro,sonido,recodo,jarabe,fineza,giralda,tesina,velero,tiniebla,vinilo,navaja,pitillo,ciruelo,torija,gotera,becerro,,,,,,,,,,,,,,3,0,3,0,0,0,0,9,,,,,,,,,,,,,None,,,,,,,,,part003,A,2019_Feb_27_1504,Syllabification,3.0.5,60.08579590743604,
,,fillerItem8,poniente,duquesa,juguete,vejiga,tibieza,pupitre,tesoro,butaca,recado,sotana,reguero,tetilla,rimero,cigarra,rapiña,ribazo,sopapo,cigoto,naranjo,veleta,gomina,sureste,pomada,lucero,,,,,,,,,,,,,,3,0,3,0,0,1,1,8,,,,,,,,,,,,,None,,,,,,,,,part003,A,2019_Feb_27_1504,Syllabification,3.0.5,60.08579590743604,
,,fillerItem7,riqueza,jacinto,suceso,taquilla,dolencia,vigilia,fijeza,lavabo,tarima,picota,recurso,recato,tobera,regata,resabio,rebeca,cimiento,bufido,redada,legajo,rudeza,barcaza,fajardo,salero,,,,,,,,,,,,,,3,0,3,0,0,2,2,7,,,,,,,,,,,,,None,,,,,,,,,part003,A,2019_Feb_27_1504,Syllabification,3.0.5,60.08579590743604,
,,fillerItem6,reliquia,laguna,subsuelo,vistazo,tapete,piscina,tarjeta,viruela,rasguño,tersura,regazo,rastrillo,remanso,cornada,tufillo,cizalla,tendencia,pesquisa,viraje,pileta,relente,pozuelo,pescuezo,bastilla,,,,,,,,,,,,,,3,0,3,0,0,3,3,6,,,,,,,,,,,,,None,,,,,,,,,part003,A,2019_Feb_27_1504,Syllabification,3.0.5,60.08579590743604,
,,fillerItem4,portento,doncella,solvencia,piltrafa,lactancia,cintura,tortazo,durmiente,gentuza,torpeza,zarpazo,fundillo,lenteja,costumbre,salchicha,cernuda,pinchazo,vendimia,persiana,campiña,mordaza,garbanzo,confianza,percance,,,,,,,,,,,,,,3,0,3,0,0,4,4,4,,,,,,,,,,,,,None,,,,,,,,,part003,A,2019_Feb_27_1504,Syllabification,3.0.5,60.08579590743604,
,,fillerItem10,soneto,dureza,ginebra,zapato,vivencia,tumulto,tobillo,vivienda,reducto,renombre,vereda,farola,luneta,regato,rivera,velorio,solera,vigencia,barbecho,vivero,fogata,sobaco,tinaja,bufete,,,,,,,,,,,,,,3,0,3,0,0,5,5,10,,,,,,,,,,,,,None,,,,,,,,,part003,A,2019_Feb_27_1504,Syllabification,3.0.5,60.08579590743604,
,,fillerItem11,tejado,cigarro,gusano,secuela,silicio,bufanda,pureza,talante,recinto,semilla,tocino,remiendo,remesa,regate,tisana,gozada,pujanza,visera,nevera,tijera,donaire,soborno,pineda,visillo,,,,,,,,,,,,,,3,0,3,0,0,6,6,11,,,,,,,,,,,,,None,,,,,,,,,part003,A,2019_Feb_27_1504,Syllabification,3.0.5,60.08579590743604,
,,fillerItem1,ternera,langosta,sandía,pulsera,testigo,zancada,pintura,tardanza,juntura,rendija,tartana,narciso,punzada,gorguera,submundo,pescante,lumbrera,bengala,victoria,pantalla,certeza,portillo,congreso,ventana,,,,,,,,,,,,,,3,0,3,0,0,7,7,1,,,,,,,,,,,,,None,,,,,,,,,part003,A,2019_Feb_27_1504,Syllabification,3.0.5,60.08579590743604,
,,fillerItem5,sendero,fantoche,jactancia,pulgada,vestigio,tintero,vertiente,burbuja,serpiente,sortija,polvera,farsante,vendaje,fortuna,lectura,felpudo,mensaje,cencerro,barbilla,putada,mordisco,corneta,bolzano,bandera,,,,,,,,,,,,,,3,0,3,0,0,8,8,5,,,,,,,,,,,,,None,,,,,,,,,part003,A,2019_Feb_27_1504,Syllabification,3.0.5,60.08579590743604,
,,fillerItem3,postigo,gordura,silbido,fastidio,poltrona,ventaja,verdura,ruptura,ternura,sordera,vergüenza,tumbona,puntilla,conducta,vislumbre,filete,lenguado,ventisca,perfidia,cambiazo,cordura,respuesta,concepto,palmada,,,,,,,,,,,,,,3,0,3,0,0,9,9,3,,,,,,,,,,,,,None,,,,,,,,,part003,A,2019_Feb_27_1504,Syllabification,3.0.5,60.08579590743604,
,,fillerItem2,zumbido,jilguero,soltura,venganza,vestuario,tinglado,sarmiento,tornillo,largueza,tortuga,portazo,gustillo,mortaja,gorjeo,laxante,pestillo,polvillo,lanzazo,perchero,lenguaje,cordero,sonrisa,campaña,balbina,,,,,,,,,,,,,,3,0,3,0,0,10,10,2,,,,,,,,,,,,,None,,,,,,,,,part003,A,2019_Feb_27_1504,Syllabification,3.0.5,60.08579590743604,
,,carrierItem,ganchillo,pestaña,pereza,morera,murmullo,joroba,culebra,centavo,volante,balada,linterna,bolero,castillo,paloma,montaña,campana,garaje,corona,costilla,rosquilla,pastilla,limpieza,cereza,coraje,,,,,,,,,,,,,,3,0,3,0,0,11,11,0,,,,,,,,,,,,,y,0.4191533659977722,,,,,,,,part003,A,2019_Feb_27_1504,Syllabification,3.0.5,60.08579590743604,
,,targetSyl,ga,pes,per,mor,mu,jo,cu,cen,vol,ba,li,bo,ca,pal,mon,ca,gar,cor,co,ros,pas,lim,ce,co,,,,,,,,,,,,,,3,0,3,0,,,,,,,,,,,,,,,,,,,,,,,,,,part003,A,2019_Feb_27_1504,Syllabification,3.0.5,60.08579590743604,
,,carrierItem,ganchillo,pestaña,pereza,morera,murmullo,joroba,culebra,centavo,volante,balada,linterna,bolero,castillo,paloma,montaña,campana,garaje,corona,costilla,rosquilla,pastilla,limpieza,cereza,coraje,,,,,,,,,,,,,,4,0,4,0,0,0,0,0,,,,,,,,,,,,,None,,,,,,,,,part003,A,2019_Feb_27_1504,Syllabification,3.0.5,60.08579590743604,
,,fillerItem5,sendero,fantoche,jactancia,pulgada,vestigio,tintero,vertiente,burbuja,serpiente,sortija,polvera,farsante,vendaje,fortuna,lectura,felpudo,mensaje,cencerro,barbilla,putada,mordisco,corneta,bolzano,bandera,,,,,,,,,,,,,,4,0,4,0,0,1,1,5,,,,,,,,,,,,,y,0.21973885300030815,,,,,,,,part003,A,2019_Feb_27_1504,Syllabification,3.0.5,60.08579590743604,
,,fillerItem9,rejilla,dominio,jinete,cilindro,pizarra,bigote,teniente,ribera,sepulcro,sonido,recodo,jarabe,fineza,giralda,tesina,velero,tiniebla,vinilo,navaja,pitillo,ciruelo,torija,gotera,becerro,,,,,,,,,,,,,,4,0,4,0,0,2,2,9,,,,,,,,,,,,,None,,,,,,,,,part003,A,2019_Feb_27_1504,Syllabification,3.0.5,60.08579590743604,
,,fillerItem2,zumbido,jilguero,soltura,venganza,vestuario,tinglado,sarmiento,tornillo,largueza,tortuga,portazo,gustillo,mortaja,gorjeo,laxante,pestillo,polvillo,lanzazo,perchero,lenguaje,cordero,sonrisa,campaña,balbina,,,,,,,,,,,,,,4,0,4,0,0,3,3,2,,,,,,,,,,,,,None,,,,,,,,,part003,A,2019_Feb_27_1504,Syllabification,3.0.5,60.08579590743604,
,,fillerItem11,tejado,cigarro,gusano,secuela,silicio,bufanda,pureza,talante,recinto,semilla,tocino,remiendo,remesa,regate,tisana,gozada,pujanza,visera,nevera,tijera,donaire,soborno,pineda,visillo,,,,,,,,,,,,,,4,0,4,0,0,4,4,11,,,,,,,,,,,,,None,,,,,,,,,part003,A,2019_Feb_27_1504,Syllabification,3.0.5,60.08579590743604,
,,fillerItem1,ternera,langosta,sandía,pulsera,testigo,zancada,pintura,tardanza,juntura,rendija,tartana,narciso,punzada,gorguera,submundo,pescante,lumbrera,bengala,victoria,pantalla,certeza,portillo,congreso,ventana,,,,,,,,,,,,,,4,0,4,0,0,5,5,1,,,,,,,,,,,,,None,,,,,,,,,part003,A,2019_Feb_27_1504,Syllabification,3.0.5,60.08579590743604,
,,fillerItem6,reliquia,laguna,subsuelo,vistazo,tapete,piscina,tarjeta,viruela,rasguño,tersura,regazo,rastrillo,remanso,cornada,tufillo,cizalla,tendencia,pesquisa,viraje,pileta,relente,pozuelo,pescuezo,bastilla,,,,,,,,,,,,,,4,0,4,0,0,6,6,6,,,,,,,,,,,,,None,,,,,,,,,part003,A,2019_Feb_27_1504,Syllabification,3.0.5,60.08579590743604,
,,fillerItem4,portento,doncella,solvencia,piltrafa,lactancia,cintura,tortazo,durmiente,gentuza,torpeza,zarpazo,fundillo,lenteja,costumbre,salchicha,cernuda,pinchazo,vendimia,persiana,campiña,mordaza,garbanzo,confianza,percance,,,,,,,,,,,,,,4,0,4,0,0,7,7,4,,,,,,,,,,,,,None,,,,,,,,,part003,A,2019_Feb_27_1504,Syllabification,3.0.5,60.08579590743604,
,,fillerItem10,soneto,dureza,ginebra,zapato,vivencia,tumulto,tobillo,vivienda,reducto,renombre,vereda,farola,luneta,regato,rivera,velorio,solera,vigencia,barbecho,vivero,fogata,sobaco,tinaja,bufete,,,,,,,,,,,,,,4,0,4,0,0,8,8,10,,,,,,,,,,,,,None,,,,,,,,,part003,A,2019_Feb_27_1504,Syllabification,3.0.5,60.08579590743604,
,,fillerItem7,riqueza,jacinto,suceso,taquilla,dolencia,vigilia,fijeza,lavabo,tarima,picota,recurso,recato,tobera,regata,resabio,rebeca,cimiento,bufido,redada,legajo,rudeza,barcaza,fajardo,salero,,,,,,,,,,,,,,4,0,4,0,0,9,9,7,,,,,,,,,,,,,None,,,,,,,,,part003,A,2019_Feb_27_1504,Syllabification,3.0.5,60.08579590743604,
,,fillerItem8,poniente,duquesa,juguete,vejiga,tibieza,pupitre,tesoro,butaca,recado,sotana,reguero,tetilla,rimero,cigarra,rapiña,ribazo,sopapo,cigoto,naranjo,veleta,gomina,sureste,pomada,lucero,,,,,,,,,,,,,,4,0,4,0,0,10,10,8,,,,,,,,,,,,,None,,,,,,,,,part003,A,2019_Feb_27_1504,Syllabification,3.0.5,60.08579590743604,
,,fillerItem3,postigo,gordura,silbido,fastidio,poltrona,ventaja,verdura,ruptura,ternura,sordera,vergüenza,tumbona,puntilla,conducta,vislumbre,filete,lenguado,ventisca,perfidia,cambiazo,cordura,respuesta,concepto,palmada,,,,,,,,,,,,,,4,0,4,0,0,11,11,3,,,,,,,,,,,,,None,,,,,,,,,part003,A,2019_Feb_27_1504,Syllabification,3.0.5,60.08579590743604,
,,targetSyl,ga,pes,per,mor,mu,jo,cu,cen,vol,ba,li,bo,ca,pal,mon,ca,gar,cor,co,ros,pas,lim,ce,co,,,,,,,,,,,,,,4,0,4,0,,,,,,,,,,,,,,,,,,,,,,,,,,part003,A,2019_Feb_27_1504,Syllabification,3.0.5,60.08579590743604,
,,fillerItem2,zumbido,jilguero,soltura,venganza,vestuario,tinglado,sarmiento,tornillo,largueza,tortuga,portazo,gustillo,mortaja,gorjeo,laxante,pestillo,polvillo,lanzazo,perchero,lenguaje,cordero,sonrisa,campaña,balbina,,,,,,,,,,,,,,5,0,5,0,0,0,0,2,,,,,,,,,,,,,None,,,,,,,,,part003,A,2019_Feb_27_1504,Syllabification,3.0.5,60.08579590743604,
,,fillerItem10,soneto,dureza,ginebra,zapato,vivencia,tumulto,tobillo,vivienda,reducto,renombre,vereda,farola,luneta,regato,rivera,velorio,solera,vigencia,barbecho,vivero,fogata,sobaco,tinaja,bufete,,,,,,,,,,,,,,5,0,5,0,0,1,1,10,,,,,,,,,,,,,None,,,,,,,,,part003,A,2019_Feb_27_1504,Syllabification,3.0.5,60.08579590743604,
,,fillerItem5,sendero,fantoche,jactancia,pulgada,vestigio,tintero,vertiente,burbuja,serpiente,sortija,polvera,farsante,vendaje,fortuna,lectura,felpudo,mensaje,cencerro,barbilla,putada,mordisco,corneta,bolzano,bandera,,,,,,,,,,,,,,5,0,5,0,0,2,2,5,,,,,,,,,,,,,None,,,,,,,,,part003,A,2019_Feb_27_1504,Syllabification,3.0.5,60.08579590743604,
,,fillerItem8,poniente,duquesa,juguete,vejiga,tibieza,pupitre,tesoro,butaca,recado,sotana,reguero,tetilla,rimero,cigarra,rapiña,ribazo,sopapo,cigoto,naranjo,veleta,gomina,sureste,pomada,lucero,,,,,,,,,,,,,,5,0,5,0,0,3,3,8,,,,,,,,,,,,,None,,,,,,,,,part003,A,2019_Feb_27_1504,Syllabification,3.0.5,60.08579590743604,
,,fillerItem3,postigo,gordura,silbido,fastidio,poltrona,ventaja,verdura,ruptura,ternura,sordera,vergüenza,tumbona,puntilla,conducta,vislumbre,filete,lenguado,ventisca,perfidia,cambiazo,cordura,respuesta,concepto,palmada,,,,,,,,,,,,,,5,0,5,0,0,4,4,3,,,,,,,,,,,,,None,,,,,,,,,part003,A,2019_Feb_27_1504,Syllabification,3.0.5,60.08579590743604,
,,fillerItem7,riqueza,jacinto,suceso,taquilla,dolencia,vigilia,fijeza,lavabo,tarima,picota,recurso,recato,tobera,regata,resabio,rebeca,cimiento,bufido,redada,legajo,rudeza,barcaza,fajardo,salero,,,,,,,,,,,,,,5,0,5,0,0,5,5,7,,,,,,,,,,,,,None,,,,,,,,,part003,A,2019_Feb_27_1504,Syllabification,3.0.5,60.08579590743604,
,,fillerItem11,tejado,cigarro,gusano,secuela,silicio,bufanda,pureza,talante,recinto,semilla,tocino,remiendo,remesa,regate,tisana,gozada,pujanza,visera,nevera,tijera,donaire,soborno,pineda,visillo,,,,,,,,,,,,,,5,0,5,0,0,6,6,11,,,,,,,,,,,,,None,,,,,,,,,part003,A,2019_Feb_27_1504,Syllabification,3.0.5,60.08579590743604,
,,fillerItem6,reliquia,laguna,subsuelo,vistazo,tapete,piscina,tarjeta,viruela,rasguño,tersura,regazo,rastrillo,remanso,cornada,tufillo,cizalla,tendencia,pesquisa,viraje,pileta,relente,pozuelo,pescuezo,bastilla,,,,,,,,,,,,,,5,0,5,0,0,7,7,6,,,,,,,,,,,,,None,,,,,,,,,part003,A,2019_Feb_27_1504,Syllabification,3.0.5,60.08579590743604,
,,fillerItem4,portento,doncella,solvencia,piltrafa,lactancia,cintura,tortazo,durmiente,gentuza,torpeza,zarpazo,fundillo,lenteja,costumbre,salchicha,cernuda,pinchazo,vendimia,persiana,campiña,mordaza,garbanzo,confianza,percance,,,,,,,,,,,,,,5,0,5,0,0,8,8,4,,,,,,,,,,,,,None,,,,,,,,,part003,A,2019_Feb_27_1504,Syllabification,3.0.5,60.08579590743604,
,,fillerItem9,rejilla,dominio,jinete,cilindro,pizarra,bigote,teniente,ribera,sepulcro,sonido,recodo,jarabe,fineza,giralda,tesina,velero,tiniebla,vinilo,navaja,pitillo,ciruelo,torija,gotera,becerro,,,,,,,,,,,,,,5,0,5,0,0,9,9,9,,,,,,,,,,,,,None,,,,,,,,,part003,A,2019_Feb_27_1504,Syllabification,3.0.5,60.08579590743604,
,,fillerItem1,ternera,langosta,sandía,pulsera,testigo,zancada,pintura,tardanza,juntura,rendija,tartana,narciso,punzada,gorguera,submundo,pescante,lumbrera,bengala,victoria,pantalla,certeza,portillo,congreso,ventana,,,,,,,,,,,,,,5,0,5,0,0,10,10,1,,,,,,,,,,,,,None,,,,,,,,,part003,A,2019_Feb_27_1504,Syllabification,3.0.5,60.08579590743604,
,,carrierItem,ganchillo,pestaña,pereza,morera,murmullo,joroba,culebra,centavo,volante,balada,linterna,bolero,castillo,paloma,montaña,campana,garaje,corona,costilla,rosquilla,pastilla,limpieza,cereza,coraje,,,,,,,,,,,,,,5,0,5,0,0,11,11,0,,,,,,,,,,,,,y,0.43680956800017157,,,,,,,,part003,A,2019_Feb_27_1504,Syllabification,3.0.5,60.08579590743604,
,,targetSyl,ga,pes,per,mor,mu,jo,cu,cen,vol,ba,li,bo,ca,pal,mon,ca,gar,cor,co,ros,pas,lim,ce,co,,,,,,,,,,,,,,5,0,5,0,,,,,,,,,,,,,,,,,,,,,,,,,,part003,A,2019_Feb_27_1504,Syllabification,3.0.5,60.08579590743604,
,,fillerItem6,reliquia,laguna,subsuelo,vistazo,tapete,piscina,tarjeta,viruela,rasguño,tersura,regazo,rastrillo,remanso,cornada,tufillo,cizalla,tendencia,pesquisa,viraje,pileta,relente,pozuelo,pescuezo,bastilla,,,,,,,,,,,,,,6,0,6,0,0,0,0,6,,,,,,,,,,,,,None,,,,,,,,,part003,A,2019_Feb_27_1504,Syllabification,3.0.5,60.08579590743604,
,,fillerItem4,portento,doncella,solvencia,piltrafa,lactancia,cintura,tortazo,durmiente,gentuza,torpeza,zarpazo,fundillo,lenteja,costumbre,salchicha,cernuda,pinchazo,vendimia,persiana,campiña,mordaza,garbanzo,confianza,percance,,,,,,,,,,,,,,6,0,6,0,0,1,1,4,,,,,,,,,,,,,None,,,,,,,,,part003,A,2019_Feb_27_1504,Syllabification,3.0.5,60.08579590743604,
,,fillerItem5,sendero,fantoche,jactancia,pulgada,vestigio,tintero,vertiente,burbuja,serpiente,sortija,polvera,farsante,vendaje,fortuna,lectura,felpudo,mensaje,cencerro,barbilla,putada,mordisco,corneta,bolzano,bandera,,,,,,,,,,,,,,6,0,6,0,0,2,2,5,,,,,,,,,,,,,None,,,,,,,,,part003,A,2019_Feb_27_1504,Syllabification,3.0.5,60.08579590743604,
,,fillerItem11,tejado,cigarro,gusano,secuela,silicio,bufanda,pureza,talante,recinto,semilla,tocino,remiendo,remesa,regate,tisana,gozada,pujanza,visera,nevera,tijera,donaire,soborno,pineda,visillo,,,,,,,,,,,,,,6,0,6,0,0,3,3,11,,,,,,,,,,,,,None,,,,,,,,,part003,A,2019_Feb_27_1504,Syllabification,3.0.5,60.08579590743604,
,,fillerItem10,soneto,dureza,ginebra,zapato,vivencia,tumulto,tobillo,vivienda,reducto,renombre,vereda,farola,luneta,regato,rivera,velorio,solera,vigencia,barbecho,vivero,fogata,sobaco,tinaja,bufete,,,,,,,,,,,,,,6,0,6,0,0,4,4,10,,,,,,,,,,,,,None,,,,,,,,,part003,A,2019_Feb_27_1504,Syllabification,3.0.5,60.08579590743604,
,,fillerItem2,zumbido,jilguero,soltura,venganza,vestuario,tinglado,sarmiento,tornillo,largueza,tortuga,portazo,gustillo,mortaja,gorjeo,laxante,pestillo,polvillo,lanzazo,perchero,lenguaje,cordero,sonrisa,campaña,balbina,,,,,,,,,,,,,,6,0,6,0,0,5,5,2,,,,,,,,,,,,,None,,,,,,,,,part003,A,2019_Feb_27_1504,Syllabification,3.0.5,60.08579590743604,
,,fillerItem9,rejilla,dominio,jinete,cilindro,pizarra,bigote,teniente,ribera,sepulcro,sonido,recodo,jarabe,fineza,giralda,tesina,velero,tiniebla,vinilo,navaja,pitillo,ciruelo,torija,gotera,becerro,,,,,,,,,,,,,,6,0,6,0,0,6,6,9,,,,,,,,,,,,,None,,,,,,,,,part003,A,2019_Feb_27_1504,Syllabification,3.0.5,60.08579590743604,
,,carrierItem,ganchillo,pestaña,pereza,morera,murmullo,joroba,culebra,centavo,volante,balada,linterna,bolero,castillo,paloma,montaña,campana,garaje,corona,costilla,rosquilla,pastilla,limpieza,cereza,coraje,,,,,,,,,,,,,,6,0,6,0,0,7,7,0,,,,,,,,,,,,,None,,,,,,,,,part003,A,2019_Feb_27_1504,Syllabification,3.0.5,60.08579590743604,
,,fillerItem8,poniente,duquesa,juguete,vejiga,tibieza,pupitre,tesoro,butaca,recado,sotana,reguero,tetilla,rimero,cigarra,rapiña,ribazo,sopapo,cigoto,naranjo,veleta,gomina,sureste,pomada,lucero,,,,,,,,,,,,,,6,0,6,0,0,8,8,8,,,,,,,,,,,,,None,,,,,,,,,part003,A,2019_Feb_27_1504,Syllabification,3.0.5,60.08579590743604,
,,fillerItem1,ternera,langosta,sandía,pulsera,testigo,zancada,pintura,tardanza,juntura,rendija,tartana,narciso,punzada,gorguera,submundo,pescante,lumbrera,bengala,victoria,pantalla,certeza,portillo,congreso,ventana,,,,,,,,,,,,,,6,0,6,0,0,9,9,1,,,,,,,,,,,,,None,,,,,,,,,part003,A,2019_Feb_27_1504,Syllabification,3.0.5,60.08579590743604,
,,fillerItem7,riqueza,jacinto,suceso,taquilla,dolencia,vigilia,fijeza,lavabo,tarima,picota,recurso,recato,tobera,regata,resabio,rebeca,cimiento,bufido,redada,legajo,rudeza,barcaza,fajardo,salero,,,,,,,,,,,,,,6,0,6,0,0,10,10,7,,,,,,,,,,,,,None,,,,,,,,,part003,A,2019_Feb_27_1504,Syllabification,3.0.5,60.08579590743604,
,,fillerItem3,postigo,gordura,silbido,fastidio,poltrona,ventaja,verdura,ruptura,ternura,sordera,vergüenza,tumbona,puntilla,conducta,vislumbre,filete,lenguado,ventisca,perfidia,cambiazo,cordura,respuesta,concepto,palmada,,,,,,,,,,,,,,6,0,6,0,0,11,11,3,,,,,,,,,,,,,None,,,,,,,,,part003,A,2019_Feb_27_1504,Syllabification,3.0.5,60.08579590743604,
,,targetSyl,ga,pes,per,mor,mu,jo,cu,cen,vol,ba,li,bo,ca,pal,mon,ca,gar,cor,co,ros,pas,lim,ce,co,,,,,,,,,,,,,,6,0,6,0,,,,,,,,,,,,,,,,,,,,,,,,,,part003,A,2019_Feb_27_1504,Syllabification,3.0.5,60.08579590743604,
,,fillerItem9,rejilla,dominio,jinete,cilindro,pizarra,bigote,teniente,ribera,sepulcro,sonido,recodo,jarabe,fineza,giralda,tesina,velero,tiniebla,vinilo,navaja,pitillo,ciruelo,torija,gotera,becerro,,,,,,,,,,,,,,7,0,7,0,0,0,0,9,,,,,,,,,,,,,None,,,,,,,,,part003,A,2019_Feb_27_1504,Syllabification,3.0.5,60.08579590743604,
,,fillerItem3,postigo,gordura,silbido,fastidio,poltrona,ventaja,verdura,ruptura,ternura,sordera,vergüenza,tumbona,puntilla,conducta,vislumbre,filete,lenguado,ventisca,perfidia,cambiazo,cordura,respuesta,concepto,palmada,,,,,,,,,,,,,,7,0,7,0,0,1,1,3,,,,,,,,,,,,,None,,,,,,,,,part003,A,2019_Feb_27_1504,Syllabification,3.0.5,60.08579590743604,
,,fillerItem5,sendero,fantoche,jactancia,pulgada,vestigio,tintero,vertiente,burbuja,serpiente,sortija,polvera,farsante,vendaje,fortuna,lectura,felpudo,mensaje,cencerro,barbilla,putada,mordisco,corneta,bolzano,bandera,,,,,,,,,,,,,,7,0,7,0,0,2,2,5,,,,,,,,,,,,,None,,,,,,,,,part003,A,2019_Feb_27_1504,Syllabification,3.0.5,60.08579590743604,
,,fillerItem8,poniente,duquesa,juguete,vejiga,tibieza,pupitre,tesoro,butaca,recado,sotana,reguero,tetilla,rimero,cigarra,rapiña,ribazo,sopapo,cigoto,naranjo,veleta,gomina,sureste,pomada,lucero,,,,,,,,,,,,,,7,0,7,0,0,3,3,8,,,,,,,,,,,,,None,,,,,,,,,part003,A,2019_Feb_27_1504,Syllabification,3.0.5,60.08579590743604,
,,fillerItem10,soneto,dureza,ginebra,zapato,vivencia,tumulto,tobillo,vivienda,reducto,renombre,vereda,farola,luneta,regato,rivera,velorio,solera,vigencia,barbecho,vivero,fogata,sobaco,tinaja,bufete,,,,,,,,,,,,,,7,0,7,0,0,4,4,10,,,,,,,,,,,,,None,,,,,,,,,part003,A,2019_Feb_27_1504,Syllabification,3.0.5,60.08579590743604,
,,carrierItem,ganchillo,pestaña,pereza,morera,murmullo,joroba,culebra,centavo,volante,balada,linterna,bolero,castillo,paloma,montaña,campana,garaje,corona,costilla,rosquilla,pastilla,limpieza,cereza,coraje,,,,,,,,,,,,,,7,0,7,0,0,5,5,0,,,,,,,,,,,,,None,,,,,,,,,part003,A,2019_Feb_27_1504,Syllabification,3.0.5,60.08579590743604,
,,fillerItem7,riqueza,jacinto,suceso,taquilla,dolencia,vigilia,fijeza,lavabo,tarima,picota,recurso,recato,tobera,regata,resabio,rebeca,cimiento,bufido,redada,legajo,rudeza,barcaza,fajardo,salero,,,,,,,,,,,,,,7,0,7,0,0,6,6,7,,,,,,,,,,,,,y,0.052593174998037284,,,,,,,,part003,A,2019_Feb_27_1504,Syllabification,3.0.5,60.08579590743604,
,,fillerItem11,tejado,cigarro,gusano,secuela,silicio,bufanda,pureza,talante,recinto,semilla,tocino,remiendo,remesa,regate,tisana,gozada,pujanza,visera,nevera,tijera,donaire,soborno,pineda,visillo,,,,,,,,,,,,,,7,0,7,0,0,7,7,11,,,,,,,,,,,,,None,,,,,,,,,part003,A,2019_Feb_27_1504,Syllabification,3.0.5,60.08579590743604,
,,fillerItem4,portento,doncella,solvencia,piltrafa,lactancia,cintura,tortazo,durmiente,gentuza,torpeza,zarpazo,fundillo,lenteja,costumbre,salchicha,cernuda,pinchazo,vendimia,persiana,campiña,mordaza,garbanzo,confianza,percance,,,,,,,,,,,,,,7,0,7,0,0,8,8,4,,,,,,,,,,,,,None,,,,,,,,,part003,A,2019_Feb_27_1504,Syllabification,3.0.5,60.08579590743604,
,,fillerItem2,zumbido,jilguero,soltura,venganza,vestuario,tinglado,sarmiento,tornillo,largueza,tortuga,portazo,gustillo,mortaja,gorjeo,laxante,pestillo,polvillo,lanzazo,perchero,lenguaje,cordero,sonrisa,campaña,balbina,,,,,,,,,,,,,,7,0,7,0,0,9,9,2,,,,,,,,,,,,,None,,,,,,,,,part003,A,2019_Feb_27_1504,Syllabification,3.0.5,60.08579590743604,
,,fillerItem1,ternera,langosta,sandía,pulsera,testigo,zancada,pintura,tardanza,juntura,rendija,tartana,narciso,punzada,gorguera,submundo,pescante,lumbrera,bengala,victoria,pantalla,certeza,portillo,congreso,ventana,,,,,,,,,,,,,,7,0,7,0,0,10,10,1,,,,,,,,,,,,,None,,,,,,,,,part003,A,2019_Feb_27_1504,Syllabification,3.0.5,60.08579590743604,
,,fillerItem6,reliquia,laguna,subsuelo,vistazo,tapete,piscina,tarjeta,viruela,rasguño,tersura,regazo,rastrillo,remanso,cornada,tufillo,cizalla,tendencia,pesquisa,viraje,pileta,relente,pozuelo,pescuezo,bastilla,,,,,,,,,,,,,,7,0,7,0,0,11,11,6,,,,,,,,,,,,,None,,,,,,,,,part003,A,2019_Feb_27_1504,Syllabification,3.0.5,60.08579590743604,
,,targetSyl,ga,pes,per,mor,mu,jo,cu,cen,vol,ba,li,bo,ca,pal,mon,ca,gar,cor,co,ros,pas,lim,ce,co,,,,,,,,,,,,,,7,0,7,0,,,,,,,,,,,,,,,,,,,,,,,,,,part003,A,2019_Feb_27_1504,Syllabification,3.0.5,60.08579590743604,
,,fillerItem6,reliquia,laguna,subsuelo,vistazo,tapete,piscina,tarjeta,viruela,rasguño,tersura,regazo,rastrillo,remanso,cornada,tufillo,cizalla,tendencia,pesquisa,viraje,pileta,relente,pozuelo,pescuezo,bastilla,,,,,,,,,,,,,,8,0,8,0,0,0,0,6,,,,,,,,,,,,,None,,,,,,,,,part003,A,2019_Feb_27_1504,Syllabification,3.0.5,60.08579590743604,
,,fillerItem1,ternera,langosta,sandía,pulsera,testigo,zancada,pintura,tardanza,juntura,rendija,tartana,narciso,punzada,gorguera,submundo,pescante,lumbrera,bengala,victoria,pantalla,certeza,portillo,congreso,ventana,,,,,,,,,,,,,,8,0,8,0,0,1,1,1,,,,,,,,,,,,,None,,,,,,,,,part003,A,2019_Feb_27_1504,Syllabification,3.0.5,60.08579590743604,
,,fillerItem9,rejilla,dominio,jinete,cilindro,pizarra,bigote,teniente,ribera,sepulcro,sonido,recodo,jarabe,fineza,giralda,tesina,velero,tiniebla,vinilo,navaja,pitillo,ciruelo,torija,gotera,becerro,,,,,,,,,,,,,,8,0,8,0,0,2,2,9,,,,,,,,,,,,,None,,,,,,,,,part003,A,2019_Feb_27_1504,Syllabification,3.0.5,60.08579590743604,
,,fillerItem8,poniente,duquesa,juguete,vejiga,tibieza,pupitre,tesoro,butaca,recado,sotana,reguero,tetilla,rimero,cigarra,rapiña,ribazo,sopapo,cigoto,naranjo,veleta,gomina,sureste,pomada,lucero,,,,,,,,,,,,,,8,0,8,0,0,3,3,8,,,,,,,,,,,,,None,,,,,,,,,part003,A,2019_Feb_27_1504,Syllabification,3.0.5,60.08579590743604,
,,fillerItem7,riqueza,jacinto,suceso,taquilla,dolencia,vigilia,fijeza,lavabo,tarima,picota,recurso,recato,tobera,regata,resabio,rebeca,cimiento,bufido,redada,legajo,rudeza,barcaza,fajardo,salero,,,,,,,,,,,,,,8,0,8,0,0,4,4,7,,,,,,,,,,,,,None,,,,,,,,,part003,A,2019_Feb_27_1504,Syllabification,3.0.5,60.08579590743604,
,,fillerItem3,postigo,gordura,silbido,fastidio,poltrona,ventaja,verdura,ruptura,ternura,sordera,vergüenza,tumbona,puntilla,conducta,vislumbre,filete,lenguado,ventisca,perfidia,cambiazo,cordura,respuesta,concepto,palmada,,,,,,,,,,,,,,8,0,8,0,0,5,5,3,,,,,,,,,,,,,None,,,,,,,,,part003,A,2019_Feb_27_1504,Syllabification,3.0.5,60.08579590743604,
,,fillerItem11,tejado,cigarro,gusano,secuela,silicio,bufanda,pureza,talante,recinto,semilla,tocino,remiendo,remesa,regate,tisana,gozada,pujanza,visera,nevera,tijera,donaire,soborno,pineda,visillo,,,,,,,,,,,,,,8,0,8,0,0,6,6,11,,,,,,,,,,,,,None,,,,,,,,,part003,A,2019_Feb_27_1504,Syllabification,3.0.5,60.08579590743604,
,,carrierItem,ganchillo,pestaña,pereza,morera,murmullo,joroba,culebra,centavo,volante,balada,linterna,bolero,castillo,paloma,montaña,campana,garaje,corona,costilla,rosquilla,pastilla,limpieza,cereza,coraje,,,,,,,,,,,,,,8,0,8,0,0,7,7,0,,,,,,,,,,,,,None,,,,,,,,,part003,A,2019_Feb_27_1504,Syllabification,3.0.5,60.08579590743604,
,,fillerItem4,portento,doncella,solvencia,piltrafa,lactancia,cintura,tortazo,durmiente,gentuza,torpeza,zarpazo,fundillo,lenteja,costumbre,salchicha,cernuda,pinchazo,vendimia,persiana,campiña,mordaza,garbanzo,confianza,percance,,,,,,,,,,,,,,8,0,8,0,0,8,8,4,,,,,,,,,,,,,None,,,,,,,,,part003,A,2019_Feb_27_1504,Syllabification,3.0.5,60.08579590743604,
,,fillerItem5,sendero,fantoche,jactancia,pulgada,vestigio,tintero,vertiente,burbuja,serpiente,sortija,polvera,farsante,vendaje,fortuna,lectura,felpudo,mensaje,cencerro,barbilla,putada,mordisco,corneta,bolzano,bandera,,,,,,,,,,,,,,8,0,8,0,0,9,9,5,,,,,,,,,,,,,None,,,,,,,,,part003,A,2019_Feb_27_1504,Syllabification,3.0.5,60.08579590743604,
,,fillerItem10,soneto,dureza,ginebra,zapato,vivencia,tumulto,tobillo,vivienda,reducto,renombre,vereda,farola,luneta,regato,rivera,velorio,solera,vigencia,barbecho,vivero,fogata,sobaco,tinaja,bufete,,,,,,,,,,,,,,8,0,8,0,0,10,10,10,,,,,,,,,,,,,None,,,,,,,,,part003,A,2019_Feb_27_1504,Syllabification,3.0.5,60.08579590743604,
,,fillerItem2,zumbido,jilguero,soltura,venganza,vestuario,tinglado,sarmiento,tornillo,largueza,tortuga,portazo,gustillo,mortaja,gorjeo,laxante,pestillo,polvillo,lanzazo,perchero,lenguaje,cordero,sonrisa,campaña,balbina,,,,,,,,,,,,,,8,0,8,0,0,11,11,2,,,,,,,,,,,,,None,,,,,,,,,part003,A,2019_Feb_27_1504,Syllabification,3.0.5,60.08579590743604,
,,targetSyl,ga,pes,per,mor,mu,jo,cu,cen,vol,ba,li,bo,ca,pal,mon,ca,gar,cor,co,ros,pas,lim,ce,co,,,,,,,,,,,,,,8,0,8,0,,,,,,,,,,,,,,,,,,,,,,,,,,part003,A,2019_Feb_27_1504,Syllabification,3.0.5,60.08579590743604,
,,fillerItem2,zumbido,jilguero,soltura,venganza,vestuario,tinglado,sarmiento,tornillo,largueza,tortuga,portazo,gustillo,mortaja,gorjeo,laxante,pestillo,polvillo,lanzazo,perchero,lenguaje,cordero,sonrisa,campaña,balbina,,,,,,,,,,,,,,9,0,9,0,0,0,0,2,,,,,,,,,,,,,None,,,,,,,,,part003,A,2019_Feb_27_1504,Syllabification,3.0.5,60.08579590743604,
,,fillerItem3,postigo,gordura,silbido,fastidio,poltrona,ventaja,verdura,ruptura,ternura,sordera,vergüenza,tumbona,puntilla,conducta,vislumbre,filete,lenguado,ventisca,perfidia,cambiazo,cordura,respuesta,concepto,palmada,,,,,,,,,,,,,,9,0,9,0,0,1,1,3,,,,,,,,,,,,,None,,,,,,,,,part003,A,2019_Feb_27_1504,Syllabification,3.0.5,60.08579590743604,
,,carrierItem,ganchillo,pestaña,pereza,morera,murmullo,joroba,culebra,centavo,volante,balada,linterna,bolero,castillo,paloma,montaña,campana,garaje,corona,costilla,rosquilla,pastilla,limpieza,cereza,coraje,,,,,,,,,,,,,,9,0,9,0,0,2,2,0,,,,,,,,,,,,,y,0.451483755998197,,,,,,,,part003,A,2019_Feb_27_1504,Syllabification,3.0.5,60.08579590743604,
,,fillerItem6,reliquia,laguna,subsuelo,vistazo,tapete,piscina,tarjeta,viruela,rasguño,tersura,regazo,rastrillo,remanso,cornada,tufillo,cizalla,tendencia,pesquisa,viraje,pileta,relente,pozuelo,pescuezo,bastilla,,,,,,,,,,,,,,9,0,9,0,0,3,3,6,,,,,,,,,,,,,None,,,,,,,,,part003,A,2019_Feb_27_1504,Syllabification,3.0.5,60.08579590743604,
,,fillerItem4,portento,doncella,solvencia,piltrafa,lactancia,cintura,tortazo,durmiente,gentuza,torpeza,zarpazo,fundillo,lenteja,costumbre,salchicha,cernuda,pinchazo,vendimia,persiana,campiña,mordaza,garbanzo,confianza,percance,,,,,,,,,,,,,,9,0,9,0,0,4,4,4,,,,,,,,,,,,,None,,,,,,,,,part003,A,2019_Feb_27_1504,Syllabification,3.0.5,60.08579590743604,
,,fillerItem9,rejilla,dominio,jinete,cilindro,pizarra,bigote,teniente,ribera,sepulcro,sonido,recodo,jarabe,fineza,giralda,tesina,velero,tiniebla,vinilo,navaja,pitillo,ciruelo,torija,gotera,becerro,,,,,,,,,,,,,,9,0,9,0,0,5,5,9,,,,,,,,,,,,,None,,,,,,,,,part003,A,2019_Feb_27_1504,Syllabification,3.0.5,60.08579590743604,
,,fillerItem8,poniente,duquesa,juguete,vejiga,tibieza,pupitre,tesoro,butaca,recado,sotana,reguero,tetilla,rimero,cigarra,rapiña,ribazo,sopapo,cigoto,naranjo,veleta,gomina,sureste,pomada,lucero,,,,,,,,,,,,,,9,0,9,0,0,6,6,8,,,,,,,,,,,,,None,,,,,,,,,part003,A,2019_Feb_27_1504,Syllabification,3.0.5,60.08579590743604,
,,fillerItem11,tejado,cigarro,gusano,secuela,silicio,bufanda,pureza,talante,recinto,semilla,tocino,remiendo,remesa,regate,tisana,gozada,pujanza,visera,nevera,tijera,donaire,soborno,pineda,visillo,,,,,,,,,,,,,,9,0,9,0,0,7,7,11,,,,,,,,,,,,,None,,,,,,,,,part003,A,2019_Feb_27_1504,Syllabification,3.0.5,60.08579590743604,
,,fillerItem7,riqueza,jacinto,suceso,taquilla,dolencia,vigilia,fijeza,lavabo,tarima,picota,recurso,recato,tobera,regata,resabio,rebeca,cimiento,bufido,redada,legajo,rudeza,barcaza,fajardo,salero,,,,,,,,,,,,,,9,0,9,0,0,8,8,7,,,,,,,,,,,,,None,,,,,,,,,part003,A,2019_Feb_27_1504,Syllabification,3.0.5,60.08579590743604,
,,fillerItem5,sendero,fantoche,jactancia,pulgada,vestigio,tintero,vertiente,burbuja,serpiente,sortija,polvera,farsante,vendaje,fortuna,lectura,felpudo,mensaje,cencerro,barbilla,putada,mordisco,corneta,bolzano,bandera,,,,,,,,,,,,,,9,0,9,0,0,9,9,5,,,,,,,,,,,,,None,,,,,,,,,part003,A,2019_Feb_27_1504,Syllabification,3.0.5,60.08579590743604,
,,fillerItem1,ternera,langosta,sandía,pulsera,testigo,zancada,pintura,tardanza,juntura,rendija,tartana,narciso,punzada,gorguera,submundo,pescante,lumbrera,bengala,victoria,pantalla,certeza,portillo,congreso,ventana,,,,,,,,,,,,,,9,0,9,0,0,10,10,1,,,,,,,,,,,,,None,,,,,,,,,part003,A,2019_Feb_27_1504,Syllabification,3.0.5,60.08579590743604,
,,fillerItem10,soneto,dureza,ginebra,zapato,vivencia,tumulto,tobillo,vivienda,reducto,renombre,vereda,farola,luneta,regato,rivera,velorio,solera,vigencia,barbecho,vivero,fogata,sobaco,tinaja,bufete,,,,,,,,,,,,,,9,0,9,0,0,11,11,10,,,,,,,,,,,,,None,,,,,,,,,part003,A,2019_Feb_27_1504,Syllabification,3.0.5,60.08579590743604,
,,targetSyl,ga,pes,per,mor,mu,jo,cu,cen,vol,ba,li,bo,ca,pal,mon,ca,gar,cor,co,ros,pas,lim,ce,co,,,,,,,,,,,,,,9,0,9,0,,,,,,,,,,,,,,,,,,,,,,,,,,part003,A,2019_Feb_27_1504,Syllabification,3.0.5,60.08579590743604,
,,fillerItem8,poniente,duquesa,juguete,vejiga,tibieza,pupitre,tesoro,butaca,recado,sotana,reguero,tetilla,rimero,cigarra,rapiña,ribazo,sopapo,cigoto,naranjo,veleta,gomina,sureste,pomada,lucero,,,,,,,,,,,,,,10,0,10,0,0,0,0,8,,,,,,,,,,,,,None,,,,,,,,,part003,A,2019_Feb_27_1504,Syllabification,3.0.5,60.08579590743604,
,,fillerItem9,rejilla,dominio,jinete,cilindro,pizarra,bigote,teniente,ribera,sepulcro,sonido,recodo,jarabe,fineza,giralda,tesina,velero,tiniebla,vinilo,navaja,pitillo,ciruelo,torija,gotera,becerro,,,,,,,,,,,,,,10,0,10,0,0,1,1,9,,,,,,,,,,,,,None,,,,,,,,,part003,A,2019_Feb_27_1504,Syllabification,3.0.5,60.08579590743604,
,,carrierItem,ganchillo,pestaña,pereza,morera,murmullo,joroba,culebra,centavo,volante,balada,linterna,bolero,castillo,paloma,montaña,campana,garaje,corona,costilla,rosquilla,pastilla,limpieza,cereza,coraje,,,,,,,,,,,,,,10,0,10,0,0,2,2,0,,,,,,,,,,,,,None,,,,,,,,,part003,A,2019_Feb_27_1504,Syllabification,3.0.5,60.08579590743604,
,,fillerItem2,zumbido,jilguero,soltura,venganza,vestuario,tinglado,sarmiento,tornillo,largueza,tortuga,portazo,gustillo,mortaja,gorjeo,laxante,pestillo,polvillo,lanzazo,perchero,lenguaje,cordero,sonrisa,campaña,balbina,,,,,,,,,,,,,,10,0,10,0,0,3,3,2,,,,,,,,,,,,,y,0.07035255400114693,,,,,,,,part003,A,2019_Feb_27_1504,Syllabification,3.0.5,60.08579590743604,
,,fillerItem10,soneto,dureza,ginebra,zapato,vivencia,tumulto,tobillo,vivienda,reducto,renombre,vereda,farola,luneta,regato,rivera,velorio,solera,vigencia,barbecho,vivero,fogata,sobaco,tinaja,bufete,,,,,,,,,,,,,,10,0,10,0,0,4,4,10,,,,,,,,,,,,,None,,,,,,,,,part003,A,2019_Feb_27_1504,Syllabification,3.0.5,60.08579590743604,
,,fillerItem3,postigo,gordura,silbido,fastidio,poltrona,ventaja,verdura,ruptura,ternura,sordera,vergüenza,tumbona,puntilla,conducta,vislumbre,filete,lenguado,ventisca,perfidia,cambiazo,cordura,respuesta,concepto,palmada,,,,,,,,,,,,,,10,0,10,0,0,5,5,3,,,,,,,,,,,,,None,,,,,,,,,part003,A,2019_Feb_27_1504,Syllabification,3.0.5,60.08579590743604,
,,fillerItem11,tejado,cigarro,gusano,secuela,silicio,bufanda,pureza,talante,recinto,semilla,tocino,remiendo,remesa,regate,tisana,gozada,pujanza,visera,nevera,tijera,donaire,soborno,pineda,visillo,,,,,,,,,,,,,,10,0,10,0,0,6,6,11,,,,,,,,,,,,,None,,,,,,,,,part003,A,2019_Feb_27_1504,Syllabification,3.0.5,60.08579590743604,
,,fillerItem5,sendero,fantoche,jactancia,pulgada,vestigio,tintero,vertiente,burbuja,serpiente,sortija,polvera,farsante,vendaje,fortuna,lectura,felpudo,mensaje,cencerro,barbilla,putada,mordisco,corneta,bolzano,bandera,,,,,,,,,,,,,,10,0,10,0,0,7,7,5,,,,,,,,,,,,,None,,,,,,,,,part003,A,2019_Feb_27_1504,Syllabification,3.0.5,60.08579590743604,
,,fillerItem7,riqueza,jacinto,suceso,taquilla,dolencia,vigilia,fijeza,lavabo,tarima,picota,recurso,recato,tobera,regata,resabio,rebeca,cimiento,bufido,redada,legajo,rudeza,barcaza,fajardo,salero,,,,,,,,,,,,,,10,0,10,0,0,8,8,7,,,,,,,,,,,,,None,,,,,,,,,part003,A,2019_Feb_27_1504,Syllabification,3.0.5,60.08579590743604,
,,fillerItem1,ternera,langosta,sandía,pulsera,testigo,zancada,pintura,tardanza,juntura,rendija,tartana,narciso,punzada,gorguera,submundo,pescante,lumbrera,bengala,victoria,pantalla,certeza,portillo,congreso,ventana,,,,,,,,,,,,,,10,0,10,0,0,9,9,1,,,,,,,,,,,,,None,,,,,,,,,part003,A,2019_Feb_27_1504,Syllabification,3.0.5,60.08579590743604,
,,fillerItem4,portento,doncella,solvencia,piltrafa,lactancia,cintura,tortazo,durmiente,gentuza,torpeza,zarpazo,fundillo,lenteja,costumbre,salchicha,cernuda,pinchazo,vendimia,persiana,campiña,mordaza,garbanzo,confianza,percance,,,,,,,,,,,,,,10,0,10,0,0,10,10,4,,,,,,,,,,,,,None,,,,,,,,,part003,A,2019_Feb_27_1504,Syllabification,3.0.5,60.08579590743604,
,,fillerItem6,reliquia,laguna,subsuelo,vistazo,tapete,piscina,tarjeta,viruela,rasguño,tersura,regazo,rastrillo,remanso,cornada,tufillo,cizalla,tendencia,pesquisa,viraje,pileta,relente,pozuelo,pescuezo,bastilla,,,,,,,,,,,,,,10,0,10,0,0,11,11,6,,,,,,,,,,,,,None,,,,,,,,,part003,A,2019_Feb_27_1504,Syllabification,3.0.5,60.08579590743604,
,,targetSyl,ga,pes,per,mor,mu,jo,cu,cen,vol,ba,li,bo,ca,pal,mon,ca,gar,cor,co,ros,pas,lim,ce,co,,,,,,,,,,,,,,10,0,10,0,,,,,,,,,,,,,,,,,,,,,,,,,,part003,A,2019_Feb_27_1504,Syllabification,3.0.5,60.08579590743604,
,,carrierItem,ganchillo,pestaña,pereza,morera,murmullo,joroba,culebra,centavo,volante,balada,linterna,bolero,castillo,paloma,montaña,campana,garaje,corona,costilla,rosquilla,pastilla,limpieza,cereza,coraje,,,,,,,,,,,,,,11,0,11,0,0,0,0,0,,,,,,,,,,,,,None,,,,,,,,,part003,A,2019_Feb_27_1504,Syllabification,3.0.5,60.08579590743604,
,,fillerItem9,rejilla,dominio,jinete,cilindro,pizarra,bigote,teniente,ribera,sepulcro,sonido,recodo,jarabe,fineza,giralda,tesina,velero,tiniebla,vinilo,navaja,pitillo,ciruelo,torija,gotera,becerro,,,,,,,,,,,,,,11,0,11,0,0,1,1,9,,,,,,,,,,,,,y,0.03646191500229179,,,,,,,,part003,A,2019_Feb_27_1504,Syllabification,3.0.5,60.08579590743604,
,,fillerItem5,sendero,fantoche,jactancia,pulgada,vestigio,tintero,vertiente,burbuja,serpiente,sortija,polvera,farsante,vendaje,fortuna,lectura,felpudo,mensaje,cencerro,barbilla,putada,mordisco,corneta,bolzano,bandera,,,,,,,,,,,,,,11,0,11,0,0,2,2,5,,,,,,,,,,,,,None,,,,,,,,,part003,A,2019_Feb_27_1504,Syllabification,3.0.5,60.08579590743604,
,,fillerItem1,ternera,langosta,sandía,pulsera,testigo,zancada,pintura,tardanza,juntura,rendija,tartana,narciso,punzada,gorguera,submundo,pescante,lumbrera,bengala,victoria,pantalla,certeza,portillo,congreso,ventana,,,,,,,,,,,,,,11,0,11,0,0,3,3,1,,,,,,,,,,,,,None,,,,,,,,,part003,A,2019_Feb_27_1504,Syllabification,3.0.5,60.08579590743604,
,,fillerItem10,soneto,dureza,ginebra,zapato,vivencia,tumulto,tobillo,vivienda,reducto,renombre,vereda,farola,luneta,regato,rivera,velorio,solera,vigencia,barbecho,vivero,fogata,sobaco,tinaja,bufete,,,,,,,,,,,,,,11,0,11,0,0,4,4,10,,,,,,,,,,,,,None,,,,,,,,,part003,A,2019_Feb_27_1504,Syllabification,3.0.5,60.08579590743604,
,,fillerItem7,riqueza,jacinto,suceso,taquilla,dolencia,vigilia,fijeza,lavabo,tarima,picota,recurso,recato,tobera,regata,resabio,rebeca,cimiento,bufido,redada,legajo,rudeza,barcaza,fajardo,salero,,,,,,,,,,,,,,11,0,11,0,0,5,5,7,,,,,,,,,,,,,None,,,,,,,,,part003,A,2019_Feb_27_1504,Syllabification,3.0.5,60.08579590743604,
,,fillerItem3,postigo,gordura,silbido,fastidio,poltrona,ventaja,verdura,ruptura,ternura,sordera,vergüenza,tumbona,puntilla,conducta,vislumbre,filete,lenguado,ventisca,perfidia,cambiazo,cordura,respuesta,concepto,palmada,,,,,,,,,,,,,,11,0,11,0,0,6,6,3,,,,,,,,,,,,,None,,,,,,,,,part003,A,2019_Feb_27_1504,Syllabification,3.0.5,60.08579590743604,
,,fillerItem2,zumbido,jilguero,soltura,venganza,vestuario,tinglado,sarmiento,tornillo,largueza,tortuga,portazo,gustillo,mortaja,gorjeo,laxante,pestillo,polvillo,lanzazo,perchero,lenguaje,cordero,sonrisa,campaña,balbina,,,,,,,,,,,,,,11,0,11,0,0,7,7,2,,,,,,,,,,,,,None,,,,,,,,,part003,A,2019_Feb_27_1504,Syllabification,3.0.5,60.08579590743604,
,,fillerItem4,portento,doncella,solvencia,piltrafa,lactancia,cintura,tortazo,durmiente,gentuza,torpeza,zarpazo,fundillo,lenteja,costumbre,salchicha,cernuda,pinchazo,vendimia,persiana,campiña,mordaza,garbanzo,confianza,percance,,,,,,,,,,,,,,11,0,11,0,0,8,8,4,,,,,,,,,,,,,y,0.036714878002385376,,,,,,,,part003,A,2019_Feb_27_1504,Syllabification,3.0.5,60.08579590743604,
,,fillerItem6,reliquia,laguna,subsuelo,vistazo,tapete,piscina,tarjeta,viruela,rasguño,tersura,regazo,rastrillo,remanso,cornada,tufillo,cizalla,tendencia,pesquisa,viraje,pileta,relente,pozuelo,pescuezo,bastilla,,,,,,,,,,,,,,11,0,11,0,0,9,9,6,,,,,,,,,,,,,None,,,,,,,,,part003,A,2019_Feb_27_1504,Syllabification,3.0.5,60.08579590743604,
,,fillerItem8,poniente,duquesa,juguete,vejiga,tibieza,pupitre,tesoro,butaca,recado,sotana,reguero,tetilla,rimero,cigarra,rapiña,ribazo,sopapo,cigoto,naranjo,veleta,gomina,sureste,pomada,lucero,,,,,,,,,,,,,,11,0,11,0,0,10,10,8,,,,,,,,,,,,,None,,,,,,,,,part003,A,2019_Feb_27_1504,Syllabification,3.0.5,60.08579590743604,
,,fillerItem11,tejado,cigarro,gusano,secuela,silicio,bufanda,pureza,talante,recinto,semilla,tocino,remiendo,remesa,regate,tisana,gozada,pujanza,visera,nevera,tijera,donaire,soborno,pineda,visillo,,,,,,,,,,,,,,11,0,11,0,0,11,11,11,,,,,,,,,,,,,None,,,,,,,,,part003,A,2019_Feb_27_1504,Syllabification,3.0.5,60.08579590743604,
,,targetSyl,ga,pes,per,mor,mu,jo,cu,cen,vol,ba,li,bo,ca,pal,mon,ca,gar,cor,co,ros,pas,lim,ce,co,,,,,,,,,,,,,,11,0,11,0,,,,,,,,,,,,,,,,,,,,,,,,,,part003,A,2019_Feb_27_1504,Syllabification,3.0.5,60.08579590743604,
,,fillerItem10,soneto,dureza,ginebra,zapato,vivencia,tumulto,tobillo,vivienda,reducto,renombre,vereda,farola,luneta,regato,rivera,velorio,solera,vigencia,barbecho,vivero,fogata,sobaco,tinaja,bufete,,,,,,,,,,,,,,12,0,12,0,0,0,0,10,,,,,,,,,,,,,None,,,,,,,,,part003,A,2019_Feb_27_1504,Syllabification,3.0.5,60.08579590743604,
,,fillerItem7,riqueza,jacinto,suceso,taquilla,dolencia,vigilia,fijeza,lavabo,tarima,picota,recurso,recato,tobera,regata,resabio,rebeca,cimiento,bufido,redada,legajo,rudeza,barcaza,fajardo,salero,,,,,,,,,,,,,,12,0,12,0,0,1,1,7,,,,,,,,,,,,,None,,,,,,,,,part003,A,2019_Feb_27_1504,Syllabification,3.0.5,60.08579590743604,
,,carrierItem,ganchillo,pestaña,pereza,morera,murmullo,joroba,culebra,centavo,volante,balada,linterna,bolero,castillo,paloma,montaña,campana,garaje,corona,costilla,rosquilla,pastilla,limpieza,cereza,coraje,,,,,,,,,,,,,,12,0,12,0,0,2,2,0,,,,,,,,,,,,,None,,,,,,,,,part003,A,2019_Feb_27_1504,Syllabification,3.0.5,60.08579590743604,
,,fillerItem1,ternera,langosta,sandía,pulsera,testigo,zancada,pintura,tardanza,juntura,rendija,tartana,narciso,punzada,gorguera,submundo,pescante,lumbrera,bengala,victoria,pantalla,certeza,portillo,congreso,ventana,,,,,,,,,,,,,,12,0,12,0,0,3,3,1,,,,,,,,,,,,,y,0.10338722500091535,,,,,,,,part003,A,2019_Feb_27_1504,Syllabification,3.0.5,60.08579590743604,
,,fillerItem11,tejado,cigarro,gusano,secuela,silicio,bufanda,pureza,talante,recinto,semilla,tocino,remiendo,remesa,regate,tisana,gozada,pujanza,visera,nevera,tijera,donaire,soborno,pineda,visillo,,,,,,,,,,,,,,12,0,12,0,0,4,4,11,,,,,,,,,,,,,None,,,,,,,,,part003,A,2019_Feb_27_1504,Syllabification,3.0.5,60.08579590743604,
,,fillerItem4,portento,doncella,solvencia,piltrafa,lactancia,cintura,tortazo,durmiente,gentuza,torpeza,zarpazo,fundillo,lenteja,costumbre,salchicha,cernuda,pinchazo,vendimia,persiana,campiña,mordaza,garbanzo,confianza,percance,,,,,,,,,,,,,,12,0,12,0,0,5,5,4,,,,,,,,,,,,,None,,,,,,,,,part003,A,2019_Feb_27_1504,Syllabification,3.0.5,60.08579590743604,
,,fillerItem2,zumbido,jilguero,soltura,venganza,vestuario,tinglado,sarmiento,tornillo,largueza,tortuga,portazo,gustillo,mortaja,gorjeo,laxante,pestillo,polvillo,lanzazo,perchero,lenguaje,cordero,sonrisa,campaña,balbina,,,,,,,,,,,,,,12,0,12,0,0,6,6,2,,,,,,,,,,,,,None,,,,,,,,,part003,A,2019_Feb_27_1504,Syllabification,3.0.5,60.08579590743604,
,,fillerItem6,reliquia,laguna,subsuelo,vistazo,tapete,piscina,tarjeta,viruela,rasguño,tersura,regazo,rastrillo,remanso,cornada,tufillo,cizalla,tendencia,pesquisa,viraje,pileta,relente,pozuelo,pescuezo,bastilla,,,,,,,,,,,,,,12,0,12,0,0,7,7,6,,,,,,,,,,,,,None,,,,,,,,,part003,A,2019_Feb_27_1504,Syllabification,3.0.5,60.08579590743604,
,,fillerItem5,sendero,fantoche,jactancia,pulgada,vestigio,tintero,vertiente,burbuja,serpiente,sortija,polvera,farsante,vendaje,fortuna,lectura,felpudo,mensaje,cencerro,barbilla,putada,mordisco,corneta,bolzano,bandera,,,,,,,,,,,,,,12,0,12,0,0,8,8,5,,,,,,,,,,,,,None,,,,,,,,,part003,A,2019_Feb_27_1504,Syllabification,3.0.5,60.08579590743604,
,,fillerItem9,rejilla,dominio,jinete,cilindro,pizarra,bigote,teniente,ribera,sepulcro,sonido,recodo,jarabe,fineza,giralda,tesina,velero,tiniebla,vinilo,navaja,pitillo,ciruelo,torija,gotera,becerro,,,,,,,,,,,,,,12,0,12,0,0,9,9,9,,,,,,,,,,,,,None,,,,,,,,,part003,A,2019_Feb_27_1504,Syllabification,3.0.5,60.08579590743604,
,,fillerItem8,poniente,duquesa,juguete,vejiga,tibieza,pupitre,tesoro,butaca,recado,sotana,reguero,tetilla,rimero,cigarra,rapiña,ribazo,sopapo,cigoto,naranjo,veleta,gomina,sureste,pomada,lucero,,,,,,,,,,,,,,12,0,12,0,0,10,10,8,,,,,,,,,,,,,None,,,,,,,,,part003,A,2019_Feb_27_1504,Syllabification,3.0.5,60.08579590743604,
,,fillerItem3,postigo,gordura,silbido,fastidio,poltrona,ventaja,verdura,ruptura,ternura,sordera,vergüenza,tumbona,puntilla,conducta,vislumbre,filete,lenguado,ventisca,perfidia,cambiazo,cordura,respuesta,concepto,palmada,,,,,,,,,,,,,,12,0,12,0,0,11,11,3,,,,,,,,,,,,,None,,,,,,,,,part003,A,2019_Feb_27_1504,Syllabification,3.0.5,60.08579590743604,
,,targetSyl,ga,pes,per,mor,mu,jo,cu,cen,vol,ba,li,bo,ca,pal,mon,ca,gar,cor,co,ros,pas,lim,ce,co,,,,,,,,,,,,,,12,0,12,0,,,,,,,,,,,,,,,,,,,,,,,,,,part003,A,2019_Feb_27_1504,Syllabification,3.0.5,60.08579590743604,
,,fillerItem10,soneto,dureza,ginebra,zapato,vivencia,tumulto,tobillo,vivienda,reducto,renombre,vereda,farola,luneta,regato,rivera,velorio,solera,vigencia,barbecho,vivero,fogata,sobaco,tinaja,bufete,,,,,,,,,,,,,,13,0,13,0,0,0,0,10,,,,,,,,,,,,,None,,,,,,,,,part003,A,2019_Feb_27_1504,Syllabification,3.0.5,60.08579590743604,
,,fillerItem4,portento,doncella,solvencia,piltrafa,lactancia,cintura,tortazo,durmiente,gentuza,torpeza,zarpazo,fundillo,lenteja,costumbre,salchicha,cernuda,pinchazo,vendimia,persiana,campiña,mordaza,garbanzo,confianza,percance,,,,,,,,,,,,,,13,0,13,0,0,1,1,4,,,,,,,,,,,,,None,,,,,,,,,part003,A,2019_Feb_27_1504,Syllabification,3.0.5,60.08579590743604,
,,fillerItem5,sendero,fantoche,jactancia,pulgada,vestigio,tintero,vertiente,burbuja,serpiente,sortija,polvera,farsante,vendaje,fortuna,lectura,felpudo,mensaje,cencerro,barbilla,putada,mordisco,corneta,bolzano,bandera,,,,,,,,,,,,,,13,0,13,0,0,2,2,5,,,,,,,,,,,,,None,,,,,,,,,part003,A,2019_Feb_27_1504,Syllabification,3.0.5,60.08579590743604,
,,fillerItem3,postigo,gordura,silbido,fastidio,poltrona,ventaja,verdura,ruptura,ternura,sordera,vergüenza,tumbona,puntilla,conducta,vislumbre,filete,lenguado,ventisca,perfidia,cambiazo,cordura,respuesta,concepto,palmada,,,,,,,,,,,,,,13,0,13,0,0,3,3,3,,,,,,,,,,,,,None,,,,,,,,,part003,A,2019_Feb_27_1504,Syllabification,3.0.5,60.08579590743604,
,,fillerItem1,ternera,langosta,sandía,pulsera,testigo,zancada,pintura,tardanza,juntura,rendija,tartana,narciso,punzada,gorguera,submundo,pescante,lumbrera,bengala,victoria,pantalla,certeza,portillo,congreso,ventana,,,,,,,,,,,,,,13,0,13,0,0,4,4,1,,,,,,,,,,,,,None,,,,,,,,,part003,A,2019_Feb_27_1504,Syllabification,3.0.5,60.08579590743604,
,,carrierItem,ganchillo,pestaña,pereza,morera,murmullo,joroba,culebra,centavo,volante,balada,linterna,bolero,castillo,paloma,montaña,campana,garaje,corona,costilla,rosquilla,pastilla,limpieza,cereza,coraje,,,,,,,,,,,,,,13,0,13,0,0,5,5,0,,,,,,,,,,,,,y,0.4531527630024357,,,,,,,,part003,A,2019_Feb_27_1504,Syllabification,3.0.5,60.08579590743604,
,,fillerItem11,tejado,cigarro,gusano,secuela,silicio,bufanda,pureza,talante,recinto,semilla,tocino,remiendo,remesa,regate,tisana,gozada,pujanza,visera,nevera,tijera,donaire,soborno,pineda,visillo,,,,,,,,,,,,,,13,0,13,0,0,6,6,11,,,,,,,,,,,,,None,,,,,,,,,part003,A,2019_Feb_27_1504,Syllabification,3.0.5,60.08579590743604,
,,fillerItem8,poniente,duquesa,juguete,vejiga,tibieza,pupitre,tesoro,butaca,recado,sotana,reguero,tetilla,rimero,cigarra,rapiña,ribazo,sopapo,cigoto,naranjo,veleta,gomina,sureste,pomada,lucero,,,,,,,,,,,,,,13,0,13,0,0,7,7,8,,,,,,,,,,,,,None,,,,,,,,,part003,A,2019_Feb_27_1504,Syllabification,3.0.5,60.08579590743604,
,,fillerItem9,rejilla,dominio,jinete,cilindro,pizarra,bigote,teniente,ribera,sepulcro,sonido,recodo,jarabe,fineza,giralda,tesina,velero,tiniebla,vinilo,navaja,pitillo,ciruelo,torija,gotera,becerro,,,,,,,,,,,,,,13,0,13,0,0,8,8,9,,,,,,,,,,,,,None,,,,,,,,,part003,A,2019_Feb_27_1504,Syllabification,3.0.5,60.08579590743604,
,,fillerItem6,reliquia,laguna,subsuelo,vistazo,tapete,piscina,tarjeta,viruela,rasguño,tersura,regazo,rastrillo,remanso,cornada,tufillo,cizalla,tendencia,pesquisa,viraje,pileta,relente,pozuelo,pescuezo,bastilla,,,,,,,,,,,,,,13,0,13,0,0,9,9,6,,,,,,,,,,,,,None,,,,,,,,,part003,A,2019_Feb_27_1504,Syllabification,3.0.5,60.08579590743604,
,,fillerItem7,riqueza,jacinto,suceso,taquilla,dolencia,vigilia,fijeza,lavabo,tarima,picota,recurso,recato,tobera,regata,resabio,rebeca,cimiento,bufido,redada,legajo,rudeza,barcaza,fajardo,salero,,,,,,,,,,,,,,13,0,13,0,0,10,10,7,,,,,,,,,,,,,None,,,,,,,,,part003,A,2019_Feb_27_1504,Syllabification,3.0.5,60.08579590743604,
,,fillerItem2,zumbido,jilguero,soltura,venganza,vestuario,tinglado,sarmiento,tornillo,largueza,tortuga,portazo,gustillo,mortaja,gorjeo,laxante,pestillo,polvillo,lanzazo,perchero,lenguaje,cordero,sonrisa,campaña,balbina,,,,,,,,,,,,,,13,0,13,0,0,11,11,2,,,,,,,,,,,,,None,,,,,,,,,part003,A,2019_Feb_27_1504,Syllabification,3.0.5,60.08579590743604,
,,targetSyl,ga,pes,per,mor,mu,jo,cu,cen,vol,ba,li,bo,ca,pal,mon,ca,gar,cor,co,ros,pas,lim,ce,co,,,,,,,,,,,,,,13,0,13,0,,,,,,,,,,,,,,,,,,,,,,,,,,part003,A,2019_Feb_27_1504,Syllabification,3.0.5,60.08579590743604,
,,fillerItem1,ternera,langosta,sandía,pulsera,testigo,zancada,pintura,tardanza,juntura,rendija,tartana,narciso,punzada,gorguera,submundo,pescante,lumbrera,bengala,victoria,pantalla,certeza,portillo,congreso,ventana,,,,,,,,,,,,,,14,0,14,0,0,0,0,1,,,,,,,,,,,,,None,,,,,,,,,part003,A,2019_Feb_27_1504,Syllabification,3.0.5,60.08579590743604,
,,fillerItem9,rejilla,dominio,jinete,cilindro,pizarra,bigote,teniente,ribera,sepulcro,sonido,recodo,jarabe,fineza,giralda,tesina,velero,tiniebla,vinilo,navaja,pitillo,ciruelo,torija,gotera,becerro,,,,,,,,,,,,,,14,0,14,0,0,1,1,9,,,,,,,,,,,,,None,,,,,,,,,part003,A,2019_Feb_27_1504,Syllabification,3.0.5,60.08579590743604,
,,fillerItem4,portento,doncella,solvencia,piltrafa,lactancia,cintura,tortazo,durmiente,gentuza,torpeza,zarpazo,fundillo,lenteja,costumbre,salchicha,cernuda,pinchazo,vendimia,persiana,campiña,mordaza,garbanzo,confianza,percance,,,,,,,,,,,,,,14,0,14,0,0,2,2,4,,,,,,,,,,,,,None,,,,,,,,,part003,A,2019_Feb_27_1504,Syllabification,3.0.5,60.08579590743604,
,,fillerItem7,riqueza,jacinto,suceso,taquilla,dolencia,vigilia,fijeza,lavabo,tarima,picota,recurso,recato,tobera,regata,resabio,rebeca,cimiento,bufido,redada,legajo,rudeza,barcaza,fajardo,salero,,,,,,,,,,,,,,14,0,14,0,0,3,3,7,,,,,,,,,,,,,None,,,,,,,,,part003,A,2019_Feb_27_1504,Syllabification,3.0.5,60.08579590743604,
,,fillerItem5,sendero,fantoche,jactancia,pulgada,vestigio,tintero,vertiente,burbuja,serpiente,sortija,polvera,farsante,vendaje,fortuna,lectura,felpudo,mensaje,cencerro,barbilla,putada,mordisco,corneta,bolzano,bandera,,,,,,,,,,,,,,14,0,14,0,0,4,4,5,,,,,,,,,,,,,None,,,,,,,,,part003,A,2019_Feb_27_1504,Syllabification,3.0.5,60.08579590743604,
,,fillerItem8,poniente,duquesa,juguete,vejiga,tibieza,pupitre,tesoro,butaca,recado,sotana,reguero,tetilla,rimero,cigarra,rapiña,ribazo,sopapo,cigoto,naranjo,veleta,gomina,sureste,pomada,lucero,,,,,,,,,,,,,,14,0,14,0,0,5,5,8,,,,,,,,,,,,,None,,,,,,,,,part003,A,2019_Feb_27_1504,Syllabification,3.0.5,60.08579590743604,
,,fillerItem6,reliquia,laguna,subsuelo,vistazo,tapete,piscina,tarjeta,viruela,rasguño,tersura,regazo,rastrillo,remanso,cornada,tufillo,cizalla,tendencia,pesquisa,viraje,pileta,relente,pozuelo,pescuezo,bastilla,,,,,,,,,,,,,,14,0,14,0,0,6,6,6,,,,,,,,,,,,,None,,,,,,,,,part003,A,2019_Feb_27_1504,Syllabification,3.0.5,60.08579590743604,
,,fillerItem3,postigo,gordura,silbido,fastidio,poltrona,ventaja,verdura,ruptura,ternura,sordera,vergüenza,tumbona,puntilla,conducta,vislumbre,filete,lenguado,ventisca,perfidia,cambiazo,cordura,respuesta,concepto,palmada,,,,,,,,,,,,,,14,0,14,0,0,7,7,3,,,,,,,,,,,,,None,,,,,,,,,part003,A,2019_Feb_27_1504,Syllabification,3.0.5,60.08579590743604,
,,carrierItem,ganchillo,pestaña,pereza,morera,murmullo,joroba,culebra,centavo,volante,balada,linterna,bolero,castillo,paloma,montaña,campana,garaje,corona,costilla,rosquilla,pastilla,limpieza,cereza,coraje,,,,,,,,,,,,,,14,0,14,0,0,8,8,0,,,,,,,,,,,,,y,0.4680061899998691,,,,,,,,part003,A,2019_Feb_27_1504,Syllabification,3.0.5,60.08579590743604,
,,fillerItem11,tejado,cigarro,gusano,secuela,silicio,bufanda,pureza,talante,recinto,semilla,tocino,remiendo,remesa,regate,tisana,gozada,pujanza,visera,nevera,tijera,donaire,soborno,pineda,visillo,,,,,,,,,,,,,,14,0,14,0,0,9,9,11,,,,,,,,,,,,,None,,,,,,,,,part003,A,2019_Feb_27_1504,Syllabification,3.0.5,60.08579590743604,
,,fillerItem2,zumbido,jilguero,soltura,venganza,vestuario,tinglado,sarmiento,tornillo,largueza,tortuga,portazo,gustillo,mortaja,gorjeo,laxante,pestillo,polvillo,lanzazo,perchero,lenguaje,cordero,sonrisa,campaña,balbina,,,,,,,,,,,,,,14,0,14,0,0,10,10,2,,,,,,,,,,,,,None,,,,,,,,,part003,A,2019_Feb_27_1504,Syllabification,3.0.5,60.08579590743604,
,,fillerItem10,soneto,dureza,ginebra,zapato,vivencia,tumulto,tobillo,vivienda,reducto,renombre,vereda,farola,luneta,regato,rivera,velorio,solera,vigencia,barbecho,vivero,fogata,sobaco,tinaja,bufete,,,,,,,,,,,,,,14,0,14,0,0,11,11,10,,,,,,,,,,,,,None,,,,,,,,,part003,A,2019_Feb_27_1504,Syllabification,3.0.5,60.08579590743604,
,,targetSyl,ga,pes,per,mor,mu,jo,cu,cen,vol,ba,li,bo,ca,pal,mon,ca,gar,cor,co,ros,pas,lim,ce,co,,,,,,,,,,,,,,14,0,14,0,,,,,,,,,,,,,,,,,,,,,,,,,,part003,A,2019_Feb_27_1504,Syllabification,3.0.5,60.08579590743604,
,,fillerItem2,zumbido,jilguero,soltura,venganza,vestuario,tinglado,sarmiento,tornillo,largueza,tortuga,portazo,gustillo,mortaja,gorjeo,laxante,pestillo,polvillo,lanzazo,perchero,lenguaje,cordero,sonrisa,campaña,balbina,,,,,,,,,,,,,,15,0,15,0,0,0,0,2,,,,,,,,,,,,,None,,,,,,,,,part003,A,2019_Feb_27_1504,Syllabification,3.0.5,60.08579590743604,
,,fillerItem1,ternera,langosta,sandía,pulsera,testigo,zancada,pintura,tardanza,juntura,rendija,tartana,narciso,punzada,gorguera,submundo,pescante,lumbrera,bengala,victoria,pantalla,certeza,portillo,congreso,ventana,,,,,,,,,,,,,,15,0,15,0,0,1,1,1,,,,,,,,,,,,,None,,,,,,,,,part003,A,2019_Feb_27_1504,Syllabification,3.0.5,60.08579590743604,
,,carrierItem,ganchillo,pestaña,pereza,morera,murmullo,joroba,culebra,centavo,volante,balada,linterna,bolero,castillo,paloma,montaña,campana,garaje,corona,costilla,rosquilla,pastilla,limpieza,cereza,coraje,,,,,,,,,,,,,,15,0,15,0,0,2,2,0,,,,,,,,,,,,,None,,,,,,,,,part003,A,2019_Feb_27_1504,Syllabification,3.0.5,60.08579590743604,
,,fillerItem3,postigo,gordura,silbido,fastidio,poltrona,ventaja,verdura,ruptura,ternura,sordera,vergüenza,tumbona,puntilla,conducta,vislumbre,filete,lenguado,ventisca,perfidia,cambiazo,cordura,respuesta,concepto,palmada,,,,,,,,,,,,,,15,0,15,0,0,3,3,3,,,,,,,,,,,,,y,0.13654148099885788,,,,,,,,part003,A,2019_Feb_27_1504,Syllabification,3.0.5,60.08579590743604,
,,fillerItem7,riqueza,jacinto,suceso,taquilla,dolencia,vigilia,fijeza,lavabo,tarima,picota,recurso,recato,tobera,regata,resabio,rebeca,cimiento,bufido,redada,legajo,rudeza,barcaza,fajardo,salero,,,,,,,,,,,,,,15,0,15,0,0,4,4,7,,,,,,,,,,,,,None,,,,,,,,,part003,A,2019_Feb_27_1504,Syllabification,3.0.5,60.08579590743604,
,,fillerItem6,reliquia,laguna,subsuelo,vistazo,tapete,piscina,tarjeta,viruela,rasguño,tersura,regazo,rastrillo,remanso,cornada,tufillo,cizalla,tendencia,pesquisa,viraje,pileta,relente,pozuelo,pescuezo,bastilla,,,,,,,,,,,,,,15,0,15,0,0,5,5,6,,,,,,,,,,,,,None,,,,,,,,,part003,A,2019_Feb_27_1504,Syllabification,3.0.5,60.08579590743604,
,,fillerItem8,poniente,duquesa,juguete,vejiga,tibieza,pupitre,tesoro,butaca,recado,sotana,reguero,tetilla,rimero,cigarra,rapiña,ribazo,sopapo,cigoto,naranjo,veleta,gomina,sureste,pomada,lucero,,,,,,,,,,,,,,15,0,15,0,0,6,6,8,,,,,,,,,,,,,None,,,,,,,,,part003,A,2019_Feb_27_1504,Syllabification,3.0.5,60.08579590743604,
,,fillerItem5,sendero,fantoche,jactancia,pulgada,vestigio,tintero,vertiente,burbuja,serpiente,sortija,polvera,farsante,vendaje,fortuna,lectura,felpudo,mensaje,cencerro,barbilla,putada,mordisco,corneta,bolzano,bandera,,,,,,,,,,,,,,15,0,15,0,0,7,7,5,,,,,,,,,,,,,None,,,,,,,,,part003,A,2019_Feb_27_1504,Syllabification,3.0.5,60.08579590743604,
,,fillerItem9,rejilla,dominio,jinete,cilindro,pizarra,bigote,teniente,ribera,sepulcro,sonido,recodo,jarabe,fineza,giralda,tesina,velero,tiniebla,vinilo,navaja,pitillo,ciruelo,torija,gotera,becerro,,,,,,,,,,,,,,15,0,15,0,0,8,8,9,,,,,,,,,,,,,None,,,,,,,,,part003,A,2019_Feb_27_1504,Syllabification,3.0.5,60.08579590743604,
,,fillerItem11,tejado,cigarro,gusano,secuela,silicio,bufanda,pureza,talante,recinto,semilla,tocino,remiendo,remesa,regate,tisana,gozada,pujanza,visera,nevera,tijera,donaire,soborno,pineda,visillo,,,,,,,,,,,,,,15,0,15,0,0,9,9,11,,,,,,,,,,,,,None,,,,,,,,,part003,A,2019_Feb_27_1504,Syllabification,3.0.5,60.08579590743604,
,,fillerItem4,portento,doncella,solvencia,piltrafa,lactancia,cintura,tortazo,durmiente,gentuza,torpeza,zarpazo,fundillo,lenteja,costumbre,salchicha,cernuda,pinchazo,vendimia,persiana,campiña,mordaza,garbanzo,confianza,percance,,,,,,,,,,,,,,15,0,15,0,0,10,10,4,,,,,,,,,,,,,None,,,,,,,,,part003,A,2019_Feb_27_1504,Syllabification,3.0.5,60.08579590743604,
,,fillerItem10,soneto,dureza,ginebra,zapato,vivencia,tumulto,tobillo,vivienda,reducto,renombre,vereda,farola,luneta,regato,rivera,velorio,solera,vigencia,barbecho,vivero,fogata,sobaco,tinaja,bufete,,,,,,,,,,,,,,15,0,15,0,0,11,11,10,,,,,,,,,,,,,None,,,,,,,,,part003,A,2019_Feb_27_1504,Syllabification,3.0.5,60.08579590743604,
,,targetSyl,ga,pes,per,mor,mu,jo,cu,cen,vol,ba,li,bo,ca,pal,mon,ca,gar,cor,co,ros,pas,lim,ce,co,,,,,,,,,,,,,,15,0,15,0,,,,,,,,,,,,,,,,,,,,,,,,,,part003,A,2019_Feb_27_1504,Syllabification,3.0.5,60.08579590743604,
,,fillerItem7,riqueza,jacinto,suceso,taquilla,dolencia,vigilia,fijeza,lavabo,tarima,picota,recurso,recato,tobera,regata,resabio,rebeca,cimiento,bufido,redada,legajo,rudeza,barcaza,fajardo,salero,,,,,,,,,,,,,,16,0,16,0,0,0,0,7,,,,,,,,,,,,,None,,,,,,,,,part003,A,2019_Feb_27_1504,Syllabification,3.0.5,60.08579590743604,
,,fillerItem11,tejado,cigarro,gusano,secuela,silicio,bufanda,pureza,talante,recinto,semilla,tocino,remiendo,remesa,regate,tisana,gozada,pujanza,visera,nevera,tijera,donaire,soborno,pineda,visillo,,,,,,,,,,,,,,16,0,16,0,0,1,1,11,,,,,,,,,,,,,None,,,,,,,,,part003,A,2019_Feb_27_1504,Syllabification,3.0.5,60.08579590743604,
,,fillerItem10,soneto,dureza,ginebra,zapato,vivencia,tumulto,tobillo,vivienda,reducto,renombre,vereda,farola,luneta,regato,rivera,velorio,solera,vigencia,barbecho,vivero,fogata,sobaco,tinaja,bufete,,,,,,,,,,,,,,16,0,16,0,0,2,2,10,,,,,,,,,,,,,None,,,,,,,,,part003,A,2019_Feb_27_1504,Syllabification,3.0.5,60.08579590743604,
,,fillerItem1,ternera,langosta,sandía,pulsera,testigo,zancada,pintura,tardanza,juntura,rendija,tartana,narciso,punzada,gorguera,submundo,pescante,lumbrera,bengala,victoria,pantalla,certeza,portillo,congreso,ventana,,,,,,,,,,,,,,16,0,16,0,0,3,3,1,,,,,,,,,,,,,None,,,,,,,,,part003,A,2019_Feb_27_1504,Syllabification,3.0.5,60.08579590743604,
,,fillerItem8,poniente,duquesa,juguete,vejiga,tibieza,pupitre,tesoro,butaca,recado,sotana,reguero,tetilla,rimero,cigarra,rapiña,ribazo,sopapo,cigoto,naranjo,veleta,gomina,sureste,pomada,lucero,,,,,,,,,,,,,,16,0,16,0,0,4,4,8,,,,,,,,,,,,,None,,,,,,,,,part003,A,2019_Feb_27_1504,Syllabification,3.0.5,60.08579590743604,
,,carrierItem,ganchillo,pestaña,pereza,morera,murmullo,joroba,culebra,centavo,volante,balada,linterna,bolero,castillo,paloma,montaña,campana,garaje,corona,costilla,rosquilla,pastilla,limpieza,cereza,coraje,,,,,,,,,,,,,,16,0,16,0,0,5,5,0,,,,,,,,,,,,,None,,,,,,,,,part003,A,2019_Feb_27_1504,Syllabification,3.0.5,60.08579590743604,
,,fillerItem5,sendero,fantoche,jactancia,pulgada,vestigio,tintero,vertiente,burbuja,serpiente,sortija,polvera,farsante,vendaje,fortuna,lectura,felpudo,mensaje,cencerro,barbilla,putada,mordisco,corneta,bolzano,bandera,,,,,,,,,,,,,,16,0,16,0,0,6,6,5,,,,,,,,,,,,,y,0.05355338600202231,,,,,,,,part003,A,2019_Feb_27_1504,Syllabification,3.0.5,60.08579590743604,
,,fillerItem3,postigo,gordura,silbido,fastidio,poltrona,ventaja,verdura,ruptura,ternura,sordera,vergüenza,tumbona,puntilla,conducta,vislumbre,filete,lenguado,ventisca,perfidia,cambiazo,cordura,respuesta,concepto,palmada,,,,,,,,,,,,,,16,0,16,0,0,7,7,3,,,,,,,,,,,,,None,,,,,,,,,part003,A,2019_Feb_27_1504,Syllabification,3.0.5,60.08579590743604,
,,fillerItem9,rejilla,dominio,jinete,cilindro,pizarra,bigote,teniente,ribera,sepulcro,sonido,recodo,jarabe,fineza,giralda,tesina,velero,tiniebla,vinilo,navaja,pitillo,ciruelo,torija,gotera,becerro,,,,,,,,,,,,,,16,0,16,0,0,8,8,9,,,,,,,,,,,,,None,,,,,,,,,part003,A,2019_Feb_27_1504,Syllabification,3.0.5,60.08579590743604,
,,fillerItem6,reliquia,laguna,subsuelo,vistazo,tapete,piscina,tarjeta,viruela,rasguño,tersura,regazo,rastrillo,remanso,cornada,tufillo,cizalla,tendencia,pesquisa,viraje,pileta,relente,pozuelo,pescuezo,bastilla,,,,,,,,,,,,,,16,0,16,0,0,9,9,6,,,,,,,,,,,,,None,,,,,,,,,part003,A,2019_Feb_27_1504,Syllabification,3.0.5,60.08579590743604,
,,fillerItem2,zumbido,jilguero,soltura,venganza,vestuario,tinglado,sarmiento,tornillo,largueza,tortuga,portazo,gustillo,mortaja,gorjeo,laxante,pestillo,polvillo,lanzazo,perchero,lenguaje,cordero,sonrisa,campaña,balbina,,,,,,,,,,,,,,16,0,16,0,0,10,10,2,,,,,,,,,,,,,None,,,,,,,,,part003,A,2019_Feb_27_1504,Syllabification,3.0.5,60.08579590743604,
,,fillerItem4,portento,doncella,solvencia,piltrafa,lactancia,cintura,tortazo,durmiente,gentuza,torpeza,zarpazo,fundillo,lenteja,costumbre,salchicha,cernuda,pinchazo,vendimia,persiana,campiña,mordaza,garbanzo,confianza,percance,,,,,,,,,,,,,,16,0,16,0,0,11,11,4,,,,,,,,,,,,,None,,,,,,,,,part003,A,2019_Feb_27_1504,Syllabification,3.0.5,60.08579590743604,
,,targetSyl,ga,pes,per,mor,mu,jo,cu,cen,vol,ba,li,bo,ca,pal,mon,ca,gar,cor,co,ros,pas,lim,ce,co,,,,,,,,,,,,,,16,0,16,0,,,,,,,,,,,,,,,,,,,,,,,,,,part003,A,2019_Feb_27_1504,Syllabification,3.0.5,60.08579590743604,
,,fillerItem2,zumbido,jilguero,soltura,venganza,vestuario,tinglado,sarmiento,tornillo,largueza,tortuga,portazo,gustillo,mortaja,gorjeo,laxante,pestillo,polvillo,lanzazo,perchero,lenguaje,cordero,sonrisa,campaña,balbina,,,,,,,,,,,,,,17,0,17,0,0,0,0,2,,,,,,,,,,,,,None,,,,,,,,,part003,A,2019_Feb_27_1504,Syllabification,3.0.5,60.08579590743604,
,,fillerItem6,reliquia,laguna,subsuelo,vistazo,tapete,piscina,tarjeta,viruela,rasguño,tersura,regazo,rastrillo,remanso,cornada,tufillo,cizalla,tendencia,pesquisa,viraje,pileta,relente,pozuelo,pescuezo,bastilla,,,,,,,,,,,,,,17,0,17,0,0,1,1,6,,,,,,,,,,,,,None,,,,,,,,,part003,A,2019_Feb_27_1504,Syllabification,3.0.5,60.08579590743604,
,,fillerItem8,poniente,duquesa,juguete,vejiga,tibieza,pupitre,tesoro,butaca,recado,sotana,reguero,tetilla,rimero,cigarra,rapiña,ribazo,sopapo,cigoto,naranjo,veleta,gomina,sureste,pomada,lucero,,,,,,,,,,,,,,17,0,17,0,0,2,2,8,,,,,,,,,,,,,None,,,,,,,,,part003,A,2019_Feb_27_1504,Syllabification,3.0.5,60.08579590743604,
,,fillerItem11,tejado,cigarro,gusano,secuela,silicio,bufanda,pureza,talante,recinto,semilla,tocino,remiendo,remesa,regate,tisana,gozada,pujanza,visera,nevera,tijera,donaire,soborno,pineda,visillo,,,,,,,,,,,,,,17,0,17,0,0,3,3,11,,,,,,,,,,,,,None,,,,,,,,,part003,A,2019_Feb_27_1504,Syllabification,3.0.5,60.08579590743604,
,,fillerItem3,postigo,gordura,silbido,fastidio,poltrona,ventaja,verdura,ruptura,ternura,sordera,vergüenza,tumbona,puntilla,conducta,vislumbre,filete,lenguado,ventisca,perfidia,cambiazo,cordura,respuesta,concepto,palmada,,,,,,,,,,,,,,17,0,17,0,0,4,4,3,,,,,,,,,,,,,None,,,,,,,,,part003,A,2019_Feb_27_1504,Syllabification,3.0.5,60.08579590743604,
,,fillerItem10,soneto,dureza,ginebra,zapato,vivencia,tumulto,tobillo,vivienda,reducto,renombre,vereda,farola,luneta,regato,rivera,velorio,solera,vigencia,barbecho,vivero,fogata,sobaco,tinaja,bufete,,,,,,,,,,,,,,17,0,17,0,0,5,5,10,,,,,,,,,,,,,None,,,,,,,,,part003,A,2019_Feb_27_1504,Syllabification,3.0.5,60.08579590743604,
,,fillerItem5,sendero,fantoche,jactancia,pulgada,vestigio,tintero,vertiente,burbuja,serpiente,sortija,polvera,farsante,vendaje,fortuna,lectura,felpudo,mensaje,cencerro,barbilla,putada,mordisco,corneta,bolzano,bandera,,,,,,,,,,,,,,17,0,17,0,0,6,6,5,,,,,,,,,,,,,None,,,,,,,,,part003,A,2019_Feb_27_1504,Syllabification,3.0.5,60.08579590743604,
,,fillerItem7,riqueza,jacinto,suceso,taquilla,dolencia,vigilia,fijeza,lavabo,tarima,picota,recurso,recato,tobera,regata,resabio,rebeca,cimiento,bufido,redada,legajo,rudeza,barcaza,fajardo,salero,,,,,,,,,,,,,,17,0,17,0,0,7,7,7,,,,,,,,,,,,,None,,,,,,,,,part003,A,2019_Feb_27_1504,Syllabification,3.0.5,60.08579590743604,
,,fillerItem9,rejilla,dominio,jinete,cilindro,pizarra,bigote,teniente,ribera,sepulcro,sonido,recodo,jarabe,fineza,giralda,tesina,velero,tiniebla,vinilo,navaja,pitillo,ciruelo,torija,gotera,becerro,,,,,,,,,,,,,,17,0,17,0,0,8,8,9,,,,,,,,,,,,,None,,,,,,,,,part003,A,2019_Feb_27_1504,Syllabification,3.0.5,60.08579590743604,
,,fillerItem4,portento,doncella,solvencia,piltrafa,lactancia,cintura,tortazo,durmiente,gentuza,torpeza,zarpazo,fundillo,lenteja,costumbre,salchicha,cernuda,pinchazo,vendimia,persiana,campiña,mordaza,garbanzo,confianza,percance,,,,,,,,,,,,,,17,0,17,0,0,9,9,4,,,,,,,,,,,,,None,,,,,,,,,part003,A,2019_Feb_27_1504,Syllabification,3.0.5,60.08579590743604,
,,fillerItem1,ternera,langosta,sandía,pulsera,testigo,zancada,pintura,tardanza,juntura,rendija,tartana,narciso,punzada,gorguera,submundo,pescante,lumbrera,bengala,victoria,pantalla,certeza,portillo,congreso,ventana,,,,,,,,,,,,,,17,0,17,0,0,10,10,1,,,,,,,,,,,,,None,,,,,,,,,part003,A,2019_Feb_27_1504,Syllabification,3.0.5,60.08579590743604,
,,carrierItem,ganchillo,pestaña,pereza,morera,murmullo,joroba,culebra,centavo,volante,balada,linterna,bolero,castillo,paloma,montaña,campana,garaje,corona,costilla,rosquilla,pastilla,limpieza,cereza,coraje,,,,,,,,,,,,,,17,0,17,0,0,11,11,0,,,,,,,,,,,,,y,0.4520569920023263,,,,,,,,part003,A,2019_Feb_27_1504,Syllabification,3.0.5,60.08579590743604,
,,targetSyl,ga,pes,per,mor,mu,jo,cu,cen,vol,ba,li,bo,ca,pal,mon,ca,gar,cor,co,ros,pas,lim,ce,co,,,,,,,,,,,,,,17,0,17,0,,,,,,,,,,,,,,,,,,,,,,,,,,part003,A,2019_Feb_27_1504,Syllabification,3.0.5,60.08579590743604,
,,fillerItem4,portento,doncella,solvencia,piltrafa,lactancia,cintura,tortazo,durmiente,gentuza,torpeza,zarpazo,fundillo,lenteja,costumbre,salchicha,cernuda,pinchazo,vendimia,persiana,campiña,mordaza,garbanzo,confianza,percance,,,,,,,,,,,,,,18,0,18,0,0,0,0,4,,,,,,,,,,,,,None,,,,,,,,,part003,A,2019_Feb_27_1504,Syllabification,3.0.5,60.08579590743604,
,,fillerItem2,zumbido,jilguero,soltura,venganza,vestuario,tinglado,sarmiento,tornillo,largueza,tortuga,portazo,gustillo,mortaja,gorjeo,laxante,pestillo,polvillo,lanzazo,perchero,lenguaje,cordero,sonrisa,campaña,balbina,,,,,,,,,,,,,,18,0,18,0,0,1,1,2,,,,,,,,,,,,,None,,,,,,,,,part003,A,2019_Feb_27_1504,Syllabification,3.0.5,60.08579590743604,
,,fillerItem7,riqueza,jacinto,suceso,taquilla,dolencia,vigilia,fijeza,lavabo,tarima,picota,recurso,recato,tobera,regata,resabio,rebeca,cimiento,bufido,redada,legajo,rudeza,barcaza,fajardo,salero,,,,,,,,,,,,,,18,0,18,0,0,2,2,7,,,,,,,,,,,,,None,,,,,,,,,part003,A,2019_Feb_27_1504,Syllabification,3.0.5,60.08579590743604,
,,fillerItem11,tejado,cigarro,gusano,secuela,silicio,bufanda,pureza,talante,recinto,semilla,tocino,remiendo,remesa,regate,tisana,gozada,pujanza,visera,nevera,tijera,donaire,soborno,pineda,visillo,,,,,,,,,,,,,,18,0,18,0,0,3,3,11,,,,,,,,,,,,,None,,,,,,,,,part003,A,2019_Feb_27_1504,Syllabification,3.0.5,60.08579590743604,
,,fillerItem9,rejilla,dominio,jinete,cilindro,pizarra,bigote,teniente,ribera,sepulcro,sonido,recodo,jarabe,fineza,giralda,tesina,velero,tiniebla,vinilo,navaja,pitillo,ciruelo,torija,gotera,becerro,,,,,,,,,,,,,,18,0,18,0,0,4,4,9,,,,,,,,,,,,,None,,,,,,,,,part003,A,2019_Feb_27_1504,Syllabification,3.0.5,60.08579590743604,
,,fillerItem8,poniente,duquesa,juguete,vejiga,tibieza,pupitre,tesoro,butaca,recado,sotana,reguero,tetilla,rimero,cigarra,rapiña,ribazo,sopapo,cigoto,naranjo,veleta,gomina,sureste,pomada,lucero,,,,,,,,,,,,,,18,0,18,0,0,5,5,8,,,,,,,,,,,,,None,,,,,,,,,part003,A,2019_Feb_27_1504,Syllabification,3.0.5,60.08579590743604,
,,fillerItem6,reliquia,laguna,subsuelo,vistazo,tapete,piscina,tarjeta,viruela,rasguño,tersura,regazo,rastrillo,remanso,cornada,tufillo,cizalla,tendencia,pesquisa,viraje,pileta,relente,pozuelo,pescuezo,bastilla,,,,,,,,,,,,,,18,0,18,0,0,6,6,6,,,,,,,,,,,,,None,,,,,,,,,part003,A,2019_Feb_27_1504,Syllabification,3.0.5,60.08579590743604,
,,fillerItem10,soneto,dureza,ginebra,zapato,vivencia,tumulto,tobillo,vivienda,reducto,renombre,vereda,farola,luneta,regato,rivera,velorio,solera,vigencia,barbecho,vivero,fogata,sobaco,tinaja,bufete,,,,,,,,,,,,,,18,0,18,0,0,7,7,10,,,,,,,,,,,,,None,,,,,,,,,part003,A,2019_Feb_27_1504,Syllabification,3.0.5,60.08579590743604,
,,carrierItem,ganchillo,pestaña,pereza,morera,murmullo,joroba,culebra,centavo,volante,balada,linterna,bolero,castillo,paloma,montaña,campana,garaje,corona,costilla,rosquilla,pastilla,limpieza,cereza,coraje,,,,,,,,,,,,,,18,0,18,0,0,8,8,0,,,,,,,,,,,,,None,,,,,,,,,part003,A,2019_Feb_27_1504,Syllabification,3.0.5,60.08579590743604,
,,fillerItem5,sendero,fantoche,jactancia,pulgada,vestigio,tintero,vertiente,burbuja,serpiente,sortija,polvera,farsante,vendaje,fortuna,lectura,felpudo,mensaje,cencerro,barbilla,putada,mordisco,corneta,bolzano,bandera,,,,,,,,,,,,,,18,0,18,0,0,9,9,5,,,,,,,,,,,,,y,0.05417036200014991,,,,,,,,part003,A,2019_Feb_27_1504,Syllabification,3.0.5,60.08579590743604,
,,fillerItem1,ternera,langosta,sandía,pulsera,testigo,zancada,pintura,tardanza,juntura,rendija,tartana,narciso,punzada,gorguera,submundo,pescante,lumbrera,bengala,victoria,pantalla,certeza,portillo,congreso,ventana,,,,,,,,,,,,,,18,0,18,0,0,10,10,1,,,,,,,,,,,,,None,,,,,,,,,part003,A,2019_Feb_27_1504,Syllabification,3.0.5,60.08579590743604,
,,fillerItem3,postigo,gordura,silbido,fastidio,poltrona,ventaja,verdura,ruptura,ternura,sordera,vergüenza,tumbona,puntilla,conducta,vislumbre,filete,lenguado,ventisca,perfidia,cambiazo,cordura,respuesta,concepto,palmada,,,,,,,,,,,,,,18,0,18,0,0,11,11,3,,,,,,,,,,,,,None,,,,,,,,,part003,A,2019_Feb_27_1504,Syllabification,3.0.5,60.08579590743604,
,,targetSyl,ga,pes,per,mor,mu,jo,cu,cen,vol,ba,li,bo,ca,pal,mon,ca,gar,cor,co,ros,pas,lim,ce,co,,,,,,,,,,,,,,18,0,18,0,,,,,,,,,,,,,,,,,,,,,,,,,,part003,A,2019_Feb_27_1504,Syllabification,3.0.5,60.08579590743604,
,,fillerItem5,sendero,fantoche,jactancia,pulgada,vestigio,tintero,vertiente,burbuja,serpiente,sortija,polvera,farsante,vendaje,fortuna,lectura,felpudo,mensaje,cencerro,barbilla,putada,mordisco,corneta,bolzano,bandera,,,,,,,,,,,,,,19,0,19,0,0,0,0,5,,,,,,,,,,,,,None,,,,,,,,,part003,A,2019_Feb_27_1504,Syllabification,3.0.5,60.08579590743604,
,,fillerItem4,portento,doncella,solvencia,piltrafa,lactancia,cintura,tortazo,durmiente,gentuza,torpeza,zarpazo,fundillo,lenteja,costumbre,salchicha,cernuda,pinchazo,vendimia,persiana,campiña,mordaza,garbanzo,confianza,percance,,,,,,,,,,,,,,19,0,19,0,0,1,1,4,,,,,,,,,,,,,None,,,,,,,,,part003,A,2019_Feb_27_1504,Syllabification,3.0.5,60.08579590743604,
,,fillerItem3,postigo,gordura,silbido,fastidio,poltrona,ventaja,verdura,ruptura,ternura,sordera,vergüenza,tumbona,puntilla,conducta,vislumbre,filete,lenguado,ventisca,perfidia,cambiazo,cordura,respuesta,concepto,palmada,,,,,,,,,,,,,,19,0,19,0,0,2,2,3,,,,,,,,,,,,,None,,,,,,,,,part003,A,2019_Feb_27_1504,Syllabification,3.0.5,60.08579590743604,
,,fillerItem1,ternera,langosta,sandía,pulsera,testigo,zancada,pintura,tardanza,juntura,rendija,tartana,narciso,punzada,gorguera,submundo,pescante,lumbrera,bengala,victoria,pantalla,certeza,portillo,congreso,ventana,,,,,,,,,,,,,,19,0,19,0,0,3,3,1,,,,,,,,,,,,,None,,,,,,,,,part003,A,2019_Feb_27_1504,Syllabification,3.0.5,60.08579590743604,
,,carrierItem,ganchillo,pestaña,pereza,morera,murmullo,joroba,culebra,centavo,volante,balada,linterna,bolero,castillo,paloma,montaña,campana,garaje,corona,costilla,rosquilla,pastilla,limpieza,cereza,coraje,,,,,,,,,,,,,,19,0,19,0,0,4,4,0,,,,,,,,,,,,,None,,,,,,,,,part003,A,2019_Feb_27_1504,Syllabification,3.0.5,60.08579590743604,
,,fillerItem7,riqueza,jacinto,suceso,taquilla,dolencia,vigilia,fijeza,lavabo,tarima,picota,recurso,recato,tobera,regata,resabio,rebeca,cimiento,bufido,redada,legajo,rudeza,barcaza,fajardo,salero,,,,,,,,,,,,,,19,0,19,0,0,5,5,7,,,,,,,,,,,,,y,0.20239113500065287,,,,,,,,part003,A,2019_Feb_27_1504,Syllabification,3.0.5,60.08579590743604,
,,fillerItem6,reliquia,laguna,subsuelo,vistazo,tapete,piscina,tarjeta,viruela,rasguño,tersura,regazo,rastrillo,remanso,cornada,tufillo,cizalla,tendencia,pesquisa,viraje,pileta,relente,pozuelo,pescuezo,bastilla,,,,,,,,,,,,,,19,0,19,0,0,6,6,6,,,,,,,,,,,,,None,,,,,,,,,part003,A,2019_Feb_27_1504,Syllabification,3.0.5,60.08579590743604,
,,fillerItem10,soneto,dureza,ginebra,zapato,vivencia,tumulto,tobillo,vivienda,reducto,renombre,vereda,farola,luneta,regato,rivera,velorio,solera,vigencia,barbecho,vivero,fogata,sobaco,tinaja,bufete,,,,,,,,,,,,,,19,0,19,0,0,7,7,10,,,,,,,,,,,,,None,,,,,,,,,part003,A,2019_Feb_27_1504,Syllabification,3.0.5,60.08579590743604,
,,fillerItem8,poniente,duquesa,juguete,vejiga,tibieza,pupitre,tesoro,butaca,recado,sotana,reguero,tetilla,rimero,cigarra,rapiña,ribazo,sopapo,cigoto,naranjo,veleta,gomina,sureste,pomada,lucero,,,,,,,,,,,,,,19,0,19,0,0,8,8,8,,,,,,,,,,,,,None,,,,,,,,,part003,A,2019_Feb_27_1504,Syllabification,3.0.5,60.08579590743604,
,,fillerItem11,tejado,cigarro,gusano,secuela,silicio,bufanda,pureza,talante,recinto,semilla,tocino,remiendo,remesa,regate,tisana,gozada,pujanza,visera,nevera,tijera,donaire,soborno,pineda,visillo,,,,,,,,,,,,,,19,0,19,0,0,9,9,11,,,,,,,,,,,,,None,,,,,,,,,part003,A,2019_Feb_27_1504,Syllabification,3.0.5,60.08579590743604,
,,fillerItem2,zumbido,jilguero,soltura,venganza,vestuario,tinglado,sarmiento,tornillo,largueza,tortuga,portazo,gustillo,mortaja,gorjeo,laxante,pestillo,polvillo,lanzazo,perchero,lenguaje,cordero,sonrisa,campaña,balbina,,,,,,,,,,,,,,19,0,19,0,0,10,10,2,,,,,,,,,,,,,None,,,,,,,,,part003,A,2019_Feb_27_1504,Syllabification,3.0.5,60.08579590743604,
,,fillerItem9,rejilla,dominio,jinete,cilindro,pizarra,bigote,teniente,ribera,sepulcro,sonido,recodo,jarabe,fineza,giralda,tesina,velero,tiniebla,vinilo,navaja,pitillo,ciruelo,torija,gotera,becerro,,,,,,,,,,,,,,19,0,19,0,0,11,11,9,,,,,,,,,,,,,None,,,,,,,,,part003,A,2019_Feb_27_1504,Syllabification,3.0.5,60.08579590743604,
,,targetSyl,ga,pes,per,mor,mu,jo,cu,cen,vol,ba,li,bo,ca,pal,mon,ca,gar,cor,co,ros,pas,lim,ce,co,,,,,,,,,,,,,,19,0,19,0,,,,,,,,,,,,,,,,,,,,,,,,,,part003,A,2019_Feb_27_1504,Syllabification,3.0.5,60.08579590743604,
,,fillerItem9,rejilla,dominio,jinete,cilindro,pizarra,bigote,teniente,ribera,sepulcro,sonido,recodo,jarabe,fineza,giralda,tesina,velero,tiniebla,vinilo,navaja,pitillo,ciruelo,torija,gotera,becerro,,,,,,,,,,,,,,20,0,20,0,0,0,0,9,,,,,,,,,,,,,None,,,,,,,,,part003,A,2019_Feb_27_1504,Syllabification,3.0.5,60.08579590743604,
,,fillerItem2,zumbido,jilguero,soltura,venganza,vestuario,tinglado,sarmiento,tornillo,largueza,tortuga,portazo,gustillo,mortaja,gorjeo,laxante,pestillo,polvillo,lanzazo,perchero,lenguaje,cordero,sonrisa,campaña,balbina,,,,,,,,,,,,,,20,0,20,0,0,1,1,2,,,,,,,,,,,,,None,,,,,,,,,part003,A,2019_Feb_27_1504,Syllabification,3.0.5,60.08579590743604,
,,fillerItem4,portento,doncella,solvencia,piltrafa,lactancia,cintura,tortazo,durmiente,gentuza,torpeza,zarpazo,fundillo,lenteja,costumbre,salchicha,cernuda,pinchazo,vendimia,persiana,campiña,mordaza,garbanzo,confianza,percance,,,,,,,,,,,,,,20,0,20,0,0,2,2,4,,,,,,,,,,,,,None,,,,,,,,,part003,A,2019_Feb_27_1504,Syllabification,3.0.5,60.08579590743604,
,,fillerItem7,riqueza,jacinto,suceso,taquilla,dolencia,vigilia,fijeza,lavabo,tarima,picota,recurso,recato,tobera,regata,resabio,rebeca,cimiento,bufido,redada,legajo,rudeza,barcaza,fajardo,salero,,,,,,,,,,,,,,20,0,20,0,0,3,3,7,,,,,,,,,,,,,None,,,,,,,,,part003,A,2019_Feb_27_1504,Syllabification,3.0.5,60.08579590743604,
,,fillerItem8,poniente,duquesa,juguete,vejiga,tibieza,pupitre,tesoro,butaca,recado,sotana,reguero,tetilla,rimero,cigarra,rapiña,ribazo,sopapo,cigoto,naranjo,veleta,gomina,sureste,pomada,lucero,,,,,,,,,,,,,,20,0,20,0,0,4,4,8,,,,,,,,,,,,,None,,,,,,,,,part003,A,2019_Feb_27_1504,Syllabification,3.0.5,60.08579590743604,
,,fillerItem5,sendero,fantoche,jactancia,pulgada,vestigio,tintero,vertiente,burbuja,serpiente,sortija,polvera,farsante,vendaje,fortuna,lectura,felpudo,mensaje,cencerro,barbilla,putada,mordisco,corneta,bolzano,bandera,,,,,,,,,,,,,,20,0,20,0,0,5,5,5,,,,,,,,,,,,,None,,,,,,,,,part003,A,2019_Feb_27_1504,Syllabification,3.0.5,60.08579590743604,
,,fillerItem10,soneto,dureza,ginebra,zapato,vivencia,tumulto,tobillo,vivienda,reducto,renombre,vereda,farola,luneta,regato,rivera,velorio,solera,vigencia,barbecho,vivero,fogata,sobaco,tinaja,bufete,,,,,,,,,,,,,,20,0,20,0,0,6,6,10,,,,,,,,,,,,,None,,,,,,,,,part003,A,2019_Feb_27_1504,Syllabification,3.0.5,60.08579590743604,
,,fillerItem11,tejado,cigarro,gusano,secuela,silicio,bufanda,pureza,talante,recinto,semilla,tocino,remiendo,remesa,regate,tisana,gozada,pujanza,visera,nevera,tijera,donaire,soborno,pineda,visillo,,,,,,,,,,,,,,20,0,20,0,0,7,7,11,,,,,,,,,,,,,None,,,,,,,,,part003,A,2019_Feb_27_1504,Syllabification,3.0.5,60.08579590743604,
,,fillerItem6,reliquia,laguna,subsuelo,vistazo,tapete,piscina,tarjeta,viruela,rasguño,tersura,regazo,rastrillo,remanso,cornada,tufillo,cizalla,tendencia,pesquisa,viraje,pileta,relente,pozuelo,pescuezo,bastilla,,,,,,,,,,,,,,20,0,20,0,0,8,8,6,,,,,,,,,,,,,None,,,,,,,,,part003,A,2019_Feb_27_1504,Syllabification,3.0.5,60.08579590743604,
,,fillerItem1,ternera,langosta,sandía,pulsera,testigo,zancada,pintura,tardanza,juntura,rendija,tartana,narciso,punzada,gorguera,submundo,pescante,lumbrera,bengala,victoria,pantalla,certeza,portillo,congreso,ventana,,,,,,,,,,,,,,20,0,20,0,0,9,9,1,,,,,,,,,,,,,None,,,,,,,,,part003,A,2019_Feb_27_1504,Syllabification,3.0.5,60.08579590743604,
,,fillerItem3,postigo,gordura,silbido,fastidio,poltrona,ventaja,verdura,ruptura,ternura,sordera,vergüenza,tumbona,puntilla,conducta,vislumbre,filete,lenguado,ventisca,perfidia,cambiazo,cordura,respuesta,concepto,palmada,,,,,,,,,,,,,,20,0,20,0,0,10,10,3,,,,,,,,,,,,,None,,,,,,,,,part003,A,2019_Feb_27_1504,Syllabification,3.0.5,60.08579590743604,
,,carrierItem,ganchillo,pestaña,pereza,morera,murmullo,joroba,culebra,centavo,volante,balada,linterna,bolero,castillo,paloma,montaña,campana,garaje,corona,costilla,rosquilla,pastilla,limpieza,cereza,coraje,,,,,,,,,,,,,,20,0,20,0,0,11,11,0,,,,,,,,,,,,,y,0.3691065540006093,,,,,,,,part003,A,2019_Feb_27_1504,Syllabification,3.0.5,60.08579590743604,
,,targetSyl,ga,pes,per,mor,mu,jo,cu,cen,vol,ba,li,bo,ca,pal,mon,ca,gar,cor,co,ros,pas,lim,ce,co,,,,,,,,,,,,,,20,0,20,0,,,,,,,,,,,,,,,,,,,,,,,,,,part003,A,2019_Feb_27_1504,Syllabification,3.0.5,60.08579590743604,
,,fillerItem6,reliquia,laguna,subsuelo,vistazo,tapete,piscina,tarjeta,viruela,rasguño,tersura,regazo,rastrillo,remanso,cornada,tufillo,cizalla,tendencia,pesquisa,viraje,pileta,relente,pozuelo,pescuezo,bastilla,,,,,,,,,,,,,,21,0,21,0,0,0,0,6,,,,,,,,,,,,,None,,,,,,,,,part003,A,2019_Feb_27_1504,Syllabification,3.0.5,60.08579590743604,
,,fillerItem4,portento,doncella,solvencia,piltrafa,lactancia,cintura,tortazo,durmiente,gentuza,torpeza,zarpazo,fundillo,lenteja,costumbre,salchicha,cernuda,pinchazo,vendimia,persiana,campiña,mordaza,garbanzo,confianza,percance,,,,,,,,,,,,,,21,0,21,0,0,1,1,4,,,,,,,,,,,,,None,,,,,,,,,part003,A,2019_Feb_27_1504,Syllabification,3.0.5,60.08579590743604,
,,fillerItem1,ternera,langosta,sandía,pulsera,testigo,zancada,pintura,tardanza,juntura,rendija,tartana,narciso,punzada,gorguera,submundo,pescante,lumbrera,bengala,victoria,pantalla,certeza,portillo,congreso,ventana,,,,,,,,,,,,,,21,0,21,0,0,2,2,1,,,,,,,,,,,,,None,,,,,,,,,part003,A,2019_Feb_27_1504,Syllabification,3.0.5,60.08579590743604,
,,carrierItem,ganchillo,pestaña,pereza,morera,murmullo,joroba,culebra,centavo,volante,balada,linterna,bolero,castillo,paloma,montaña,campana,garaje,corona,costilla,rosquilla,pastilla,limpieza,cereza,coraje,,,,,,,,,,,,,,21,0,21,0,0,3,3,0,,,,,,,,,,,,,None,,,,,,,,,part003,A,2019_Feb_27_1504,Syllabification,3.0.5,60.08579590743604,
,,fillerItem11,tejado,cigarro,gusano,secuela,silicio,bufanda,pureza,talante,recinto,semilla,tocino,remiendo,remesa,regate,tisana,gozada,pujanza,visera,nevera,tijera,donaire,soborno,pineda,visillo,,,,,,,,,,,,,,21,0,21,0,0,4,4,11,,,,,,,,,,,,,y,0.08730900499722338,,,,,,,,part003,A,2019_Feb_27_1504,Syllabification,3.0.5,60.08579590743604,
,,fillerItem3,postigo,gordura,silbido,fastidio,poltrona,ventaja,verdura,ruptura,ternura,sordera,vergüenza,tumbona,puntilla,conducta,vislumbre,filete,lenguado,ventisca,perfidia,cambiazo,cordura,respuesta,concepto,palmada,,,,,,,,,,,,,,21,0,21,0,0,5,5,3,,,,,,,,,,,,,None,,,,,,,,,part003,A,2019_Feb_27_1504,Syllabification,3.0.5,60.08579590743604,
,,fillerItem10,soneto,dureza,ginebra,zapato,vivencia,tumulto,tobillo,vivienda,reducto,renombre,vereda,farola,luneta,regato,rivera,velorio,solera,vigencia,barbecho,vivero,fogata,sobaco,tinaja,bufete,,,,,,,,,,,,,,21,0,21,0,0,6,6,10,,,,,,,,,,,,,None,,,,,,,,,part003,A,2019_Feb_27_1504,Syllabification,3.0.5,60.08579590743604,
,,fillerItem9,rejilla,dominio,jinete,cilindro,pizarra,bigote,teniente,ribera,sepulcro,sonido,recodo,jarabe,fineza,giralda,tesina,velero,tiniebla,vinilo,navaja,pitillo,ciruelo,torija,gotera,becerro,,,,,,,,,,,,,,21,0,21,0,0,7,7,9,,,,,,,,,,,,,None,,,,,,,,,part003,A,2019_Feb_27_1504,Syllabification,3.0.5,60.08579590743604,
,,fillerItem7,riqueza,jacinto,suceso,taquilla,dolencia,vigilia,fijeza,lavabo,tarima,picota,recurso,recato,tobera,regata,resabio,rebeca,cimiento,bufido,redada,legajo,rudeza,barcaza,fajardo,salero,,,,,,,,,,,,,,21,0,21,0,0,8,8,7,,,,,,,,,,,,,None,,,,,,,,,part003,A,2019_Feb_27_1504,Syllabification,3.0.5,60.08579590743604,
,,fillerItem5,sendero,fantoche,jactancia,pulgada,vestigio,tintero,vertiente,burbuja,serpiente,sortija,polvera,farsante,vendaje,fortuna,lectura,felpudo,mensaje,cencerro,barbilla,putada,mordisco,corneta,bolzano,bandera,,,,,,,,,,,,,,21,0,21,0,0,9,9,5,,,,,,,,,,,,,None,,,,,,,,,part003,A,2019_Feb_27_1504,Syllabification,3.0.5,60.08579590743604,
,,fillerItem8,poniente,duquesa,juguete,vejiga,tibieza,pupitre,tesoro,butaca,recado,sotana,reguero,tetilla,rimero,cigarra,rapiña,ribazo,sopapo,cigoto,naranjo,veleta,gomina,sureste,pomada,lucero,,,,,,,,,,,,,,21,0,21,0,0,10,10,8,,,,,,,,,,,,,None,,,,,,,,,part003,A,2019_Feb_27_1504,Syllabification,3.0.5,60.08579590743604,
,,fillerItem2,zumbido,jilguero,soltura,venganza,vestuario,tinglado,sarmiento,tornillo,largueza,tortuga,portazo,gustillo,mortaja,gorjeo,laxante,pestillo,polvillo,lanzazo,perchero,lenguaje,cordero,sonrisa,campaña,balbina,,,,,,,,,,,,,,21,0,21,0,0,11,11,2,,,,,,,,,,,,,None,,,,,,,,,part003,A,2019_Feb_27_1504,Syllabification,3.0.5,60.08579590743604,
,,targetSyl,ga,pes,per,mor,mu,jo,cu,cen,vol,ba,li,bo,ca,pal,mon,ca,gar,cor,co,ros,pas,lim,ce,co,,,,,,,,,,,,,,21,0,21,0,,,,,,,,,,,,,,,,,,,,,,,,,,part003,A,2019_Feb_27_1504,Syllabification,3.0.5,60.08579590743604,
,,fillerItem8,poniente,duquesa,juguete,vejiga,tibieza,pupitre,tesoro,butaca,recado,sotana,reguero,tetilla,rimero,cigarra,rapiña,ribazo,sopapo,cigoto,naranjo,veleta,gomina,sureste,pomada,lucero,,,,,,,,,,,,,,22,0,22,0,0,0,0,8,,,,,,,,,,,,,y,0.06872379000196815,,,,,,,,part003,A,2019_Feb_27_1504,Syllabification,3.0.5,60.08579590743604,
,,fillerItem9,rejilla,dominio,jinete,cilindro,pizarra,bigote,teniente,ribera,sepulcro,sonido,recodo,jarabe,fineza,giralda,tesina,velero,tiniebla,vinilo,navaja,pitillo,ciruelo,torija,gotera,becerro,,,,,,,,,,,,,,22,0,22,0,0,1,1,9,,,,,,,,,,,,,None,,,,,,,,,part003,A,2019_Feb_27_1504,Syllabification,3.0.5,60.08579590743604,
,,fillerItem6,reliquia,laguna,subsuelo,vistazo,tapete,piscina,tarjeta,viruela,rasguño,tersura,regazo,rastrillo,remanso,cornada,tufillo,cizalla,tendencia,pesquisa,viraje,pileta,relente,pozuelo,pescuezo,bastilla,,,,,,,,,,,,,,22,0,22,0,0,2,2,6,,,,,,,,,,,,,None,,,,,,,,,part003,A,2019_Feb_27_1504,Syllabification,3.0.5,60.08579590743604,
,,fillerItem4,portento,doncella,solvencia,piltrafa,lactancia,cintura,tortazo,durmiente,gentuza,torpeza,zarpazo,fundillo,lenteja,costumbre,salchicha,cernuda,pinchazo,vendimia,persiana,campiña,mordaza,garbanzo,confianza,percance,,,,,,,,,,,,,,22,0,22,0,0,3,3,4,,,,,,,,,,,,,None,,,,,,,,,part003,A,2019_Feb_27_1504,Syllabification,3.0.5,60.08579590743604,
,,fillerItem5,sendero,fantoche,jactancia,pulgada,vestigio,tintero,vertiente,burbuja,serpiente,sortija,polvera,farsante,vendaje,fortuna,lectura,felpudo,mensaje,cencerro,barbilla,putada,mordisco,corneta,bolzano,bandera,,,,,,,,,,,,,,22,0,22,0,0,4,4,5,,,,,,,,,,,,,None,,,,,,,,,part003,A,2019_Feb_27_1504,Syllabification,3.0.5,60.08579590743604,
