stimuliList,stimuliA0,stimuliA1,stimuliA2,stimuliA3,stimuliA4,stimuliA5,stimuliA6,stimuliA7,stimuliA8,stimuliA9,stimuliA10,stimuliA11,stimuliA12,stimuliA13,stimuliA14,stimuliA15,stimuliA16,stimuliA17,stimuliA18,stimuliA19,stimuliA20,stimuliA21,stimuliA22,stimuliA23,stimuliB0,stimuliB1,stimuliB2,stimuliB3,stimuliB4,stimuliB5,stimuliB6,stimuliB7,stimuliB8,stimuliB9,stimuliB10,stimuliB11,stimuliB12,stimuliB13,stimuliB14,stimuliB15,stimuliB16,stimuliB17,stimuliB18,stimuliB19,stimuliB20,stimuliB21,stimuliB22,stimuliB23,stimuliC0,stimuliC1,stimuliC2,stimuliC3,stimuliC4,stimuliC5,stimuliC6,stimuliC7,stimuliC8,stimuliC9,stimuliC10,stimuliC11,stimuliC12,stimuliC13,stimuliC14,stimuliC15,stimuliC16,stimuliC17,stimuliC18,stimuliC19,stimuliC20,stimuliC21,stimuliC22,stimuliC23,stimuliD0,stimuliD1,stimuliD2,stimuliD3,stimuliD4,stimuliD5,stimuliD6,stimuliD7,stimuliD8,stimuliD9,stimuliD10,stimuliD11,stimuliD12,stimuliD13,stimuliD14,stimuliD15,stimuliD16,stimuliD17,stimuliD18,stimuliD19,stimuliD20,stimuliD21,stimuliD22,stimuliD23,stimuliPractice0,stimuliPractice1,pracTarLoop.thisRepN,pracTarLoop.thisTrialN,pracTarLoop.thisN,pracTarLoop.thisIndex,pracTrialLoop.thisRepN,pracTrialLoop.thisTrialN,pracTrialLoop.thisN,pracTrialLoop.thisIndex,expTarLoop.thisRepN,expTarLoop.thisTrialN,expTarLoop.thisN,expTarLoop.thisIndex,expTrialLoop.thisRepN,expTrialLoop.thisTrialN,expTrialLoop.thisN,expTrialLoop.thisIndex,startPrac.keys,startPrac.rt,prac_key_resp.keys,prac_key_resp.rt,startExpTrials.keys,startExpTrials.rt,exp_key_resp.keys,exp_key_resp.rt,sylPracStart.keys,sylPracStart.rt,participant,session,date,expName,psychopyVersion,frameRate,
,,,,,,,,,,,,,,,,,,,,,,,,,,,,,,,,,,,,,,,,,,,,,,,,,,,,,,,,,,,,,,,,,,,,,,,,,,,,,,,,,,,,,,,,,,,,,,,,,,,,,,,,,,,,,,,,,,,space,19.435245509997912,,,,,,,,,part001,A,2019_Feb_27_1427,Syllabification,3.0.5,60.2282676631124,
fillerItem9,rejilla,dominio,jinete,cilindro,pizarra,bigote,teniente,ribera,sepulcro,sonido,recodo,jarabe,fineza,giralda,tesina,velero,tiniebla,vinilo,navaja,pitillo,ciruelo,torija,gotera,becerro,rejilla,dominio,jinete,cilindro,pizarra,bigote,teniente,ribera,sepulcro,sonido,recodo,jarabe,fineza,giralda,tesina,velero,tiniebla,vinilo,navaja,pitillo,ciruelo,torija,gotera,becerro,ribera,ciruelo,sonido,tesina,torija,velero,becerro,recodo,cilindro,tiniebla,pizarra,navaja,jarabe,sepulcro,jinete,teniente,dominio,giralda,gotera,fineza,bigote,rejilla,pitillo,vinilo,ribera,ciruelo,sonido,tesina,torija,velero,becerro,recodo,cilindro,tiniebla,pizarra,navaja,jarabe,sepulcro,jinete,teniente,dominio,giralda,gotera,fineza,bigote,rejilla,pitillo,vinilo,jarana,jaqueca,0,0,0,0,0,0,0,9,,,,,,,,,,,None,,,,,,,,part001,A,2019_Feb_27_1427,Syllabification,3.0.5,60.2282676631124,
carrierItem,ganchillo,pestaña,pereza,morera,murmullo,joroba,culebra,centavo,volante,balada,linterna,bolero,castillo,paloma,montaña,campana,garaje,corona,costilla,rosquilla,pastilla,limpieza,cereza,coraje,ganchillo,pestaña,pereza,morera,murmullo,joroba,culebra,centavo,volante,balada,linterna,bolero,castillo,paloma,montaña,campana,garaje,corona,costilla,rosquilla,pastilla,limpieza,cereza,coraje,ceniza,pasaje,baldosa,moneda,limosna,camisa,corbata,linaje,morcillo,garganta,muralla,cosecha,bolsillo,voltaje,permiso,culpable,peseta,palmera,cerveza,casilla,jornada,ganancia,rosario,corteza,ceniza,pasaje,baldosa,moneda,limosna,camisa,corbata,linaje,morcillo,garganta,muralla,cosecha,bolsillo,voltaje,permiso,culpable,peseta,palmera,cerveza,casilla,jornada,ganancia,rosario,corteza,deltoides,delirio,0,0,0,0,0,1,1,0,,,,,,,,,,,y,0.9017516620006063,,,,,,,part001,A,2019_Feb_27_1427,Syllabification,3.0.5,60.2282676631124,
fillerItem2,zumbido,jilguero,soltura,venganza,vestuario,tinglado,sarmiento,tornillo,largueza,tortuga,portazo,gustillo,mortaja,gorjeo,laxante,pestillo,polvillo,lanzazo,perchero,lenguaje,cordero,sonrisa,campaña,balbina,zumbido,jilguero,soltura,venganza,vestuario,tinglado,sarmiento,tornillo,largueza,tortuga,portazo,gustillo,mortaja,gorjeo,laxante,pestillo,polvillo,lanzazo,perchero,lenguaje,cordero,sonrisa,campaña,balbina,tornillo,cordero,tortuga,laxante,sonrisa,pestillo,balbina,portazo,venganza,polvillo,vestuario,perchero,gustillo,largueza,soltura,sarmiento,jilguero,gorjeo,campaña,mortaja,tinglado,zumbido,lenguaje,lanzazo,tornillo,cordero,tortuga,laxante,sonrisa,pestillo,balbina,portazo,venganza,polvillo,vestuario,perchero,gustillo,largueza,soltura,sarmiento,jilguero,gorjeo,campaña,mortaja,tinglado,zumbido,lenguaje,lanzazo,fondillo,captura,0,0,0,0,0,2,2,2,,,,,,,,,,,None,,,,,,,,part001,A,2019_Feb_27_1427,Syllabification,3.0.5,60.2282676631124,
fillerItem8,poniente,duquesa,juguete,vejiga,tibieza,pupitre,tesoro,butaca,recado,sotana,reguero,tetilla,rimero,cigarra,rapiña,ribazo,sopapo,cigoto,naranjo,veleta,gomina,sureste,pomada,lucero,poniente,duquesa,juguete,vejiga,tibieza,pupitre,tesoro,butaca,recado,sotana,reguero,tetilla,rimero,cigarra,rapiña,ribazo,sopapo,cigoto,naranjo,veleta,gomina,sureste,pomada,lucero,butaca,gomina,sotana,rapiña,sureste,ribazo,lucero,reguero,vejiga,sopapo,tibieza,naranjo,tetilla,recado,juguete,tesoro,duquesa,cigarra,pomada,rimero,pupitre,poniente,veleta,cigoto,butaca,gomina,sotana,rapiña,sureste,ribazo,lucero,reguero,vejiga,sopapo,tibieza,naranjo,tetilla,recado,juguete,tesoro,duquesa,cigarra,pomada,rimero,pupitre,poniente,veleta,cigoto,pimienta,cirilo,0,0,0,0,0,3,3,8,,,,,,,,,,,None,,,,,,,,part001,A,2019_Feb_27_1427,Syllabification,3.0.5,60.2282676631124,
fillerItem1,ternera,langosta,sandía,pulsera,testigo,zancada,pintura,tardanza,juntura,rendija,tartana,narciso,punzada,gorguera,submundo,pescante,lumbrera,bengala,victoria,pantalla,certeza,portillo,congreso,ventana,ternera,langosta,sandía,pulsera,testigo,zancada,pintura,tardanza,juntura,rendija,tartana,narciso,punzada,gorguera,submundo,pescante,lumbrera,bengala,victoria,pantalla,certeza,portillo,congreso,ventana,tardanza,certeza,rendija,submundo,portillo,pescante,ventana,tartana,pulsera,lumbrera,testigo,victoria,narciso,juntura,sandía,pintura,langosta,gorguera,congreso,punzada,zancada,ternera,pantalla,bengala,tardanza,certeza,rendija,submundo,portillo,pescante,ventana,tartana,pulsera,lumbrera,testigo,victoria,narciso,juntura,sandía,pintura,langosta,gorguera,congreso,punzada,zancada,ternera,pantalla,bengala,cornisa,zarzuela,0,0,0,0,0,4,4,1,,,,,,,,,,,None,,,,,,,,part001,A,2019_Feb_27_1427,Syllabification,3.0.5,60.2282676631124,
fillerItem7,riqueza,jacinto,suceso,taquilla,dolencia,vigilia,fijeza,lavabo,tarima,picota,recurso,recato,tobera,regata,resabio,rebeca,cimiento,bufido,redada,legajo,rudeza,barcaza,fajardo,salero,riqueza,jacinto,suceso,taquilla,dolencia,vigilia,fijeza,lavabo,tarima,picota,recurso,recato,tobera,regata,resabio,rebeca,cimiento,bufido,redada,legajo,rudeza,barcaza,fajardo,salero,lavabo,rudeza,picota,resabio,barcaza,rebeca,salero,recurso,taquilla,cimiento,dolencia,redada,recato,tarima,suceso,fijeza,jacinto,regata,fajardo,tobera,vigilia,riqueza,legajo,bufido,lavabo,rudeza,picota,resabio,barcaza,rebeca,salero,recurso,taquilla,cimiento,dolencia,redada,recato,tarima,suceso,fijeza,jacinto,regata,fajardo,tobera,vigilia,riqueza,legajo,bufido,ranura,piropo,0,0,0,0,0,5,5,7,,,,,,,,,,,None,,,,,,,,part001,A,2019_Feb_27_1427,Syllabification,3.0.5,60.2282676631124,
fillerItem6,reliquia,laguna,subsuelo,vistazo,tapete,piscina,tarjeta,viruela,rasguño,tersura,regazo,rastrillo,remanso,cornada,tufillo,cizalla,tendencia,pesquisa,viraje,pileta,relente,pozuelo,pescuezo,bastilla,reliquia,laguna,subsuelo,vistazo,tapete,piscina,tarjeta,viruela,rasguño,tersura,regazo,rastrillo,remanso,cornada,tufillo,cizalla,tendencia,pesquisa,viraje,pileta,relente,pozuelo,pescuezo,bastilla,viruela,relente,tersura,tufillo,pozuelo,cizalla,bastilla,regazo,vistazo,tendencia,tapete,viraje,rastrillo,rasguño,subsuelo,tarjeta,laguna,cornada,pescuezo,remanso,piscina,reliquia,pileta,pesquisa,viruela,relente,tersura,tufillo,pozuelo,cizalla,bastilla,regazo,vistazo,tendencia,tapete,viraje,rastrillo,rasguño,subsuelo,tarjeta,laguna,cornada,pescuezo,remanso,piscina,reliquia,pileta,pesquisa,ponencia,sandalia,0,0,0,0,0,6,6,6,,,,,,,,,,,None,,,,,,,,part001,A,2019_Feb_27_1427,Syllabification,3.0.5,60.2282676631124,
fillerItem3,postigo,gordura,silbido,fastidio,poltrona,ventaja,verdura,ruptura,ternura,sordera,vergüenza,tumbona,puntilla,conducta,vislumbre,filete,lenguado,ventisca,perfidia,cambiazo,cordura,respuesta,concepto,palmada,postigo,gordura,silbido,fastidio,poltrona,ventaja,verdura,ruptura,ternura,sordera,vergüenza,tumbona,puntilla,conducta,vislumbre,filete,lenguado,ventisca,perfidia,cambiazo,cordura,respuesta,concepto,palmada,ruptura,cordura,sordera,vislumbre,respuesta,filete,palmada,vergüenza,fastidio,lenguado,poltrona,perfidia,tumbona,ternura,silbido,verdura,gordura,conducta,concepto,puntilla,ventaja,postigo,cambiazo,ventisca,ruptura,cordura,sordera,vislumbre,respuesta,filete,palmada,vergüenza,fastidio,lenguado,poltrona,perfidia,tumbona,ternura,silbido,verdura,gordura,conducta,concepto,puntilla,ventaja,postigo,cambiazo,ventisca,zarcillo,jasmina,0,0,0,0,0,7,7,3,,,,,,,,,,,None,,,,,,,,part001,A,2019_Feb_27_1427,Syllabification,3.0.5,60.2282676631124,
fillerItem5,sendero,fantoche,jactancia,pulgada,vestigio,tintero,vertiente,burbuja,serpiente,sortija,polvera,farsante,vendaje,fortuna,lectura,felpudo,mensaje,cencerro,barbilla,putada,mordisco,corneta,bolzano,bandera,sendero,fantoche,jactancia,pulgada,vestigio,tintero,vertiente,burbuja,serpiente,sortija,polvera,farsante,vendaje,fortuna,lectura,felpudo,mensaje,cencerro,barbilla,putada,mordisco,corneta,bolzano,bandera,burbuja,mordisco,sortija,lectura,corneta,felpudo,bandera,polvera,pulgada,mensaje,vestigio,barbilla,farsante,serpiente,jactancia,vertiente,fantoche,fortuna,bolzano,vendaje,tintero,sendero,putada,cencerro,burbuja,mordisco,sortija,lectura,corneta,felpudo,bandera,polvera,pulgada,mensaje,vestigio,barbilla,farsante,serpiente,jactancia,vertiente,fantoche,fortuna,bolzano,vendaje,tintero,sendero,putada,cencerro,pandilla,suspenso,0,0,0,0,0,8,8,5,,,,,,,,,,,None,,,,,,,,part001,A,2019_Feb_27_1427,Syllabification,3.0.5,60.2282676631124,
fillerItem11,tejado,cigarro,gusano,secuela,silicio,bufanda,pureza,talante,recinto,semilla,tocino,remiendo,remesa,regate,tisana,gozada,pujanza,visera,nevera,tijera,donaire,soborno,pineda,visillo,tejado,cigarro,gusano,secuela,silicio,bufanda,pureza,talante,recinto,semilla,tocino,remiendo,remesa,regate,tisana,gozada,pujanza,visera,nevera,tijera,donaire,soborno,pineda,visillo,talante,donaire,semilla,tisana,soborno,gozada,visillo,tocino,secuela,pujanza,silicio,nevera,remiendo,recinto,gusano,pureza,cigarro,regate,pineda,remesa,bufanda,tejado,tijera,visera,talante,donaire,semilla,tisana,soborno,gozada,visillo,tocino,secuela,pujanza,silicio,nevera,remiendo,recinto,gusano,pureza,cigarro,regate,pineda,remesa,bufanda,tejado,tijera,visera,secano,pocilga,0,0,0,0,0,9,9,11,,,,,,,,,,,None,,,,,,,,part001,A,2019_Feb_27_1427,Syllabification,3.0.5,60.2282676631124,
fillerItem4,portento,doncella,solvencia,piltrafa,lactancia,cintura,tortazo,durmiente,gentuza,torpeza,zarpazo,fundillo,lenteja,costumbre,salchicha,cernuda,pinchazo,vendimia,persiana,campiña,mordaza,garbanzo,confianza,percance,portento,doncella,solvencia,piltrafa,lactancia,cintura,tortazo,durmiente,gentuza,torpeza,zarpazo,fundillo,lenteja,costumbre,salchicha,cernuda,pinchazo,vendimia,persiana,campiña,mordaza,garbanzo,confianza,percance,durmiente,mordaza,torpeza,salchicha,garbanzo,cernuda,percance,zarpazo,piltrafa,pinchazo,lactancia,persiana,fundillo,gentuza,solvencia,tortazo,doncella,costumbre,confianza,lenteja,cintura,portento,campiña,vendimia,durmiente,mordaza,torpeza,salchicha,garbanzo,cernuda,percance,zarpazo,piltrafa,pinchazo,lactancia,persiana,fundillo,gentuza,solvencia,tortazo,doncella,costumbre,confianza,lenteja,cintura,portento,campiña,vendimia,sarcasmo,pancarta,0,0,0,0,0,10,10,4,,,,,,,,,,,None,,,,,,,,part001,A,2019_Feb_27_1427,Syllabification,3.0.5,60.2282676631124,
fillerItem10,soneto,dureza,ginebra,zapato,vivencia,tumulto,tobillo,vivienda,reducto,renombre,vereda,farola,luneta,regato,rivera,velorio,solera,vigencia,barbecho,vivero,fogata,sobaco,tinaja,bufete,soneto,dureza,ginebra,zapato,vivencia,tumulto,tobillo,vivienda,reducto,renombre,vereda,farola,luneta,regato,rivera,velorio,solera,vigencia,barbecho,vivero,fogata,sobaco,tinaja,bufete,vivienda,fogata,renombre,rivera,sobaco,velorio,bufete,vereda,zapato,solera,vivencia,barbecho,farola,reducto,ginebra,tobillo,dureza,regato,tinaja,luneta,tumulto,soneto,vivero,vigencia,vivienda,fogata,renombre,rivera,sobaco,velorio,bufete,vereda,zapato,solera,vivencia,barbecho,farola,reducto,ginebra,tobillo,dureza,regato,tinaja,luneta,tumulto,soneto,vivero,vigencia,pimiento,piragua,0,0,0,0,0,11,11,10,,,,,,,,,,,None,,,,,,,,part001,A,2019_Feb_27_1427,Syllabification,3.0.5,60.2282676631124,
targetSyl,ga,pes,per,mor,mu,jo,cu,cen,vol,ba,li,bo,ca,pal,mon,ca,gar,cor,co,ros,pas,lim,ce,co,gan,pe,pe,mo,mur,jor,cul,ce,vo,bal,lin,bol,cas,pa,mo,cam,ga,co,cos,ro,pa,li,cer,cor,cen,pas,ba,mon,lim,ca,co,li,mor,gar,mu,co,bo,vol,per,cu,pes,pal,ce,ca,jo,ga,ros,cor,ce,pa,bal,mo,li,cam,cor,lin,mo,ga,mur,cos,bol,vo,pe,cul,pe,pa,cer,cas,jor,gan,ro,co,del,de,0,0,0,0,,,,,,,,,,,,,,,,,,,,,,,part001,A,2019_Feb_27_1427,Syllabification,3.0.5,60.2282676631124,
fillerItem9,rejilla,dominio,jinete,cilindro,pizarra,bigote,teniente,ribera,sepulcro,sonido,recodo,jarabe,fineza,giralda,tesina,velero,tiniebla,vinilo,navaja,pitillo,ciruelo,torija,gotera,becerro,rejilla,dominio,jinete,cilindro,pizarra,bigote,teniente,ribera,sepulcro,sonido,recodo,jarabe,fineza,giralda,tesina,velero,tiniebla,vinilo,navaja,pitillo,ciruelo,torija,gotera,becerro,ribera,ciruelo,sonido,tesina,torija,velero,becerro,recodo,cilindro,tiniebla,pizarra,navaja,jarabe,sepulcro,jinete,teniente,dominio,giralda,gotera,fineza,bigote,rejilla,pitillo,vinilo,ribera,ciruelo,sonido,tesina,torija,velero,becerro,recodo,cilindro,tiniebla,pizarra,navaja,jarabe,sepulcro,jinete,teniente,dominio,giralda,gotera,fineza,bigote,rejilla,pitillo,vinilo,jarana,jaqueca,1,0,1,0,0,0,0,9,,,,,,,,,,,None,,,,,,,,part001,A,2019_Feb_27_1427,Syllabification,3.0.5,60.2282676631124,
fillerItem3,postigo,gordura,silbido,fastidio,poltrona,ventaja,verdura,ruptura,ternura,sordera,vergüenza,tumbona,puntilla,conducta,vislumbre,filete,lenguado,ventisca,perfidia,cambiazo,cordura,respuesta,concepto,palmada,postigo,gordura,silbido,fastidio,poltrona,ventaja,verdura,ruptura,ternura,sordera,vergüenza,tumbona,puntilla,conducta,vislumbre,filete,lenguado,ventisca,perfidia,cambiazo,cordura,respuesta,concepto,palmada,ruptura,cordura,sordera,vislumbre,respuesta,filete,palmada,vergüenza,fastidio,lenguado,poltrona,perfidia,tumbona,ternura,silbido,verdura,gordura,conducta,concepto,puntilla,ventaja,postigo,cambiazo,ventisca,ruptura,cordura,sordera,vislumbre,respuesta,filete,palmada,vergüenza,fastidio,lenguado,poltrona,perfidia,tumbona,ternura,silbido,verdura,gordura,conducta,concepto,puntilla,ventaja,postigo,cambiazo,ventisca,zarcillo,jasmina,1,0,1,0,0,1,1,3,,,,,,,,,,,None,,,,,,,,part001,A,2019_Feb_27_1427,Syllabification,3.0.5,60.2282676631124,
fillerItem2,zumbido,jilguero,soltura,venganza,vestuario,tinglado,sarmiento,tornillo,largueza,tortuga,portazo,gustillo,mortaja,gorjeo,laxante,pestillo,polvillo,lanzazo,perchero,lenguaje,cordero,sonrisa,campaña,balbina,zumbido,jilguero,soltura,venganza,vestuario,tinglado,sarmiento,tornillo,largueza,tortuga,portazo,gustillo,mortaja,gorjeo,laxante,pestillo,polvillo,lanzazo,perchero,lenguaje,cordero,sonrisa,campaña,balbina,tornillo,cordero,tortuga,laxante,sonrisa,pestillo,balbina,portazo,venganza,polvillo,vestuario,perchero,gustillo,largueza,soltura,sarmiento,jilguero,gorjeo,campaña,mortaja,tinglado,zumbido,lenguaje,lanzazo,tornillo,cordero,tortuga,laxante,sonrisa,pestillo,balbina,portazo,venganza,polvillo,vestuario,perchero,gustillo,largueza,soltura,sarmiento,jilguero,gorjeo,campaña,mortaja,tinglado,zumbido,lenguaje,lanzazo,fondillo,captura,1,0,1,0,0,2,2,2,,,,,,,,,,,None,,,,,,,,part001,A,2019_Feb_27_1427,Syllabification,3.0.5,60.2282676631124,
fillerItem8,poniente,duquesa,juguete,vejiga,tibieza,pupitre,tesoro,butaca,recado,sotana,reguero,tetilla,rimero,cigarra,rapiña,ribazo,sopapo,cigoto,naranjo,veleta,gomina,sureste,pomada,lucero,poniente,duquesa,juguete,vejiga,tibieza,pupitre,tesoro,butaca,recado,sotana,reguero,tetilla,rimero,cigarra,rapiña,ribazo,sopapo,cigoto,naranjo,veleta,gomina,sureste,pomada,lucero,butaca,gomina,sotana,rapiña,sureste,ribazo,lucero,reguero,vejiga,sopapo,tibieza,naranjo,tetilla,recado,juguete,tesoro,duquesa,cigarra,pomada,rimero,pupitre,poniente,veleta,cigoto,butaca,gomina,sotana,rapiña,sureste,ribazo,lucero,reguero,vejiga,sopapo,tibieza,naranjo,tetilla,recado,juguete,tesoro,duquesa,cigarra,pomada,rimero,pupitre,poniente,veleta,cigoto,pimienta,cirilo,1,0,1,0,0,3,3,8,,,,,,,,,,,None,,,,,,,,part001,A,2019_Feb_27_1427,Syllabification,3.0.5,60.2282676631124,
fillerItem7,riqueza,jacinto,suceso,taquilla,dolencia,vigilia,fijeza,lavabo,tarima,picota,recurso,recato,tobera,regata,resabio,rebeca,cimiento,bufido,redada,legajo,rudeza,barcaza,fajardo,salero,riqueza,jacinto,suceso,taquilla,dolencia,vigilia,fijeza,lavabo,tarima,picota,recurso,recato,tobera,regata,resabio,rebeca,cimiento,bufido,redada,legajo,rudeza,barcaza,fajardo,salero,lavabo,rudeza,picota,resabio,barcaza,rebeca,salero,recurso,taquilla,cimiento,dolencia,redada,recato,tarima,suceso,fijeza,jacinto,regata,fajardo,tobera,vigilia,riqueza,legajo,bufido,lavabo,rudeza,picota,resabio,barcaza,rebeca,salero,recurso,taquilla,cimiento,dolencia,redada,recato,tarima,suceso,fijeza,jacinto,regata,fajardo,tobera,vigilia,riqueza,legajo,bufido,ranura,piropo,1,0,1,0,0,4,4,7,,,,,,,,,,,None,,,,,,,,part001,A,2019_Feb_27_1427,Syllabification,3.0.5,60.2282676631124,
fillerItem6,reliquia,laguna,subsuelo,vistazo,tapete,piscina,tarjeta,viruela,rasguño,tersura,regazo,rastrillo,remanso,cornada,tufillo,cizalla,tendencia,pesquisa,viraje,pileta,relente,pozuelo,pescuezo,bastilla,reliquia,laguna,subsuelo,vistazo,tapete,piscina,tarjeta,viruela,rasguño,tersura,regazo,rastrillo,remanso,cornada,tufillo,cizalla,tendencia,pesquisa,viraje,pileta,relente,pozuelo,pescuezo,bastilla,viruela,relente,tersura,tufillo,pozuelo,cizalla,bastilla,regazo,vistazo,tendencia,tapete,viraje,rastrillo,rasguño,subsuelo,tarjeta,laguna,cornada,pescuezo,remanso,piscina,reliquia,pileta,pesquisa,viruela,relente,tersura,tufillo,pozuelo,cizalla,bastilla,regazo,vistazo,tendencia,tapete,viraje,rastrillo,rasguño,subsuelo,tarjeta,laguna,cornada,pescuezo,remanso,piscina,reliquia,pileta,pesquisa,ponencia,sandalia,1,0,1,0,0,5,5,6,,,,,,,,,,,None,,,,,,,,part001,A,2019_Feb_27_1427,Syllabification,3.0.5,60.2282676631124,
fillerItem4,portento,doncella,solvencia,piltrafa,lactancia,cintura,tortazo,durmiente,gentuza,torpeza,zarpazo,fundillo,lenteja,costumbre,salchicha,cernuda,pinchazo,vendimia,persiana,campiña,mordaza,garbanzo,confianza,percance,portento,doncella,solvencia,piltrafa,lactancia,cintura,tortazo,durmiente,gentuza,torpeza,zarpazo,fundillo,lenteja,costumbre,salchicha,cernuda,pinchazo,vendimia,persiana,campiña,mordaza,garbanzo,confianza,percance,durmiente,mordaza,torpeza,salchicha,garbanzo,cernuda,percance,zarpazo,piltrafa,pinchazo,lactancia,persiana,fundillo,gentuza,solvencia,tortazo,doncella,costumbre,confianza,lenteja,cintura,portento,campiña,vendimia,durmiente,mordaza,torpeza,salchicha,garbanzo,cernuda,percance,zarpazo,piltrafa,pinchazo,lactancia,persiana,fundillo,gentuza,solvencia,tortazo,doncella,costumbre,confianza,lenteja,cintura,portento,campiña,vendimia,sarcasmo,pancarta,1,0,1,0,0,6,6,4,,,,,,,,,,,None,,,,,,,,part001,A,2019_Feb_27_1427,Syllabification,3.0.5,60.2282676631124,
carrierItem,ganchillo,pestaña,pereza,morera,murmullo,joroba,culebra,centavo,volante,balada,linterna,bolero,castillo,paloma,montaña,campana,garaje,corona,costilla,rosquilla,pastilla,limpieza,cereza,coraje,ganchillo,pestaña,pereza,morera,murmullo,joroba,culebra,centavo,volante,balada,linterna,bolero,castillo,paloma,montaña,campana,garaje,corona,costilla,rosquilla,pastilla,limpieza,cereza,coraje,ceniza,pasaje,baldosa,moneda,limosna,camisa,corbata,linaje,morcillo,garganta,muralla,cosecha,bolsillo,voltaje,permiso,culpable,peseta,palmera,cerveza,casilla,jornada,ganancia,rosario,corteza,ceniza,pasaje,baldosa,moneda,limosna,camisa,corbata,linaje,morcillo,garganta,muralla,cosecha,bolsillo,voltaje,permiso,culpable,peseta,palmera,cerveza,casilla,jornada,ganancia,rosario,corteza,deltoides,delirio,1,0,1,0,0,7,7,0,,,,,,,,,,,y,0.7522301040007733,,,,,,,part001,A,2019_Feb_27_1427,Syllabification,3.0.5,60.2282676631124,
fillerItem11,tejado,cigarro,gusano,secuela,silicio,bufanda,pureza,talante,recinto,semilla,tocino,remiendo,remesa,regate,tisana,gozada,pujanza,visera,nevera,tijera,donaire,soborno,pineda,visillo,tejado,cigarro,gusano,secuela,silicio,bufanda,pureza,talante,recinto,semilla,tocino,remiendo,remesa,regate,tisana,gozada,pujanza,visera,nevera,tijera,donaire,soborno,pineda,visillo,talante,donaire,semilla,tisana,soborno,gozada,visillo,tocino,secuela,pujanza,silicio,nevera,remiendo,recinto,gusano,pureza,cigarro,regate,pineda,remesa,bufanda,tejado,tijera,visera,talante,donaire,semilla,tisana,soborno,gozada,visillo,tocino,secuela,pujanza,silicio,nevera,remiendo,recinto,gusano,pureza,cigarro,regate,pineda,remesa,bufanda,tejado,tijera,visera,secano,pocilga,1,0,1,0,0,8,8,11,,,,,,,,,,,None,,,,,,,,part001,A,2019_Feb_27_1427,Syllabification,3.0.5,60.2282676631124,
fillerItem1,ternera,langosta,sandía,pulsera,testigo,zancada,pintura,tardanza,juntura,rendija,tartana,narciso,punzada,gorguera,submundo,pescante,lumbrera,bengala,victoria,pantalla,certeza,portillo,congreso,ventana,ternera,langosta,sandía,pulsera,testigo,zancada,pintura,tardanza,juntura,rendija,tartana,narciso,punzada,gorguera,submundo,pescante,lumbrera,bengala,victoria,pantalla,certeza,portillo,congreso,ventana,tardanza,certeza,rendija,submundo,portillo,pescante,ventana,tartana,pulsera,lumbrera,testigo,victoria,narciso,juntura,sandía,pintura,langosta,gorguera,congreso,punzada,zancada,ternera,pantalla,bengala,tardanza,certeza,rendija,submundo,portillo,pescante,ventana,tartana,pulsera,lumbrera,testigo,victoria,narciso,juntura,sandía,pintura,langosta,gorguera,congreso,punzada,zancada,ternera,pantalla,bengala,cornisa,zarzuela,1,0,1,0,0,9,9,1,,,,,,,,,,,None,,,,,,,,part001,A,2019_Feb_27_1427,Syllabification,3.0.5,60.2282676631124,
fillerItem10,soneto,dureza,ginebra,zapato,vivencia,tumulto,tobillo,vivienda,reducto,renombre,vereda,farola,luneta,regato,rivera,velorio,solera,vigencia,barbecho,vivero,fogata,sobaco,tinaja,bufete,soneto,dureza,ginebra,zapato,vivencia,tumulto,tobillo,vivienda,reducto,renombre,vereda,farola,luneta,regato,rivera,velorio,solera,vigencia,barbecho,vivero,fogata,sobaco,tinaja,bufete,vivienda,fogata,renombre,rivera,sobaco,velorio,bufete,vereda,zapato,solera,vivencia,barbecho,farola,reducto,ginebra,tobillo,dureza,regato,tinaja,luneta,tumulto,soneto,vivero,vigencia,vivienda,fogata,renombre,rivera,sobaco,velorio,bufete,vereda,zapato,solera,vivencia,barbecho,farola,reducto,ginebra,tobillo,dureza,regato,tinaja,luneta,tumulto,soneto,vivero,vigencia,pimiento,piragua,1,0,1,0,0,10,10,10,,,,,,,,,,,None,,,,,,,,part001,A,2019_Feb_27_1427,Syllabification,3.0.5,60.2282676631124,
fillerItem5,sendero,fantoche,jactancia,pulgada,vestigio,tintero,vertiente,burbuja,serpiente,sortija,polvera,farsante,vendaje,fortuna,lectura,felpudo,mensaje,cencerro,barbilla,putada,mordisco,corneta,bolzano,bandera,sendero,fantoche,jactancia,pulgada,vestigio,tintero,vertiente,burbuja,serpiente,sortija,polvera,farsante,vendaje,fortuna,lectura,felpudo,mensaje,cencerro,barbilla,putada,mordisco,corneta,bolzano,bandera,burbuja,mordisco,sortija,lectura,corneta,felpudo,bandera,polvera,pulgada,mensaje,vestigio,barbilla,farsante,serpiente,jactancia,vertiente,fantoche,fortuna,bolzano,vendaje,tintero,sendero,putada,cencerro,burbuja,mordisco,sortija,lectura,corneta,felpudo,bandera,polvera,pulgada,mensaje,vestigio,barbilla,farsante,serpiente,jactancia,vertiente,fantoche,fortuna,bolzano,vendaje,tintero,sendero,putada,cencerro,pandilla,suspenso,1,0,1,0,0,11,11,5,,,,,,,,,,,None,,,,,,,,part001,A,2019_Feb_27_1427,Syllabification,3.0.5,60.2282676631124,
targetSyl,ga,pes,per,mor,mu,jo,cu,cen,vol,ba,li,bo,ca,pal,mon,ca,gar,cor,co,ros,pas,lim,ce,co,gan,pe,pe,mo,mur,jor,cul,ce,vo,bal,lin,bol,cas,pa,mo,cam,ga,co,cos,ro,pa,li,cer,cor,cen,pas,ba,mon,lim,ca,co,li,mor,gar,mu,co,bo,vol,per,cu,pes,pal,ce,ca,jo,ga,ros,cor,ce,pa,bal,mo,li,cam,cor,lin,mo,ga,mur,cos,bol,vo,pe,cul,pe,pa,cer,cas,jor,gan,ro,co,del,de,1,0,1,0,,,,,,,,,,,,,,,,,,,,,,,part001,A,2019_Feb_27_1427,Syllabification,3.0.5,60.2282676631124,
,,,,,,,,,,,,,,,,,,,,,,,,,,,,,,,,,,,,,,,,,,,,,,,,,,,,,,,,,,,,,,,,,,,,,,,,,,,,,,,,,,,,,,,,,,,,,,,,,,,,,,,,,,,,,,,,,,,,,,,space,13.76838652099832,,,,,part001,A,2019_Feb_27_1427,Syllabification,3.0.5,60.2282676631124,
fillerItem11,tejado,cigarro,gusano,secuela,silicio,bufanda,pureza,talante,recinto,semilla,tocino,remiendo,remesa,regate,tisana,gozada,pujanza,visera,nevera,tijera,donaire,soborno,pineda,visillo,tejado,cigarro,gusano,secuela,silicio,bufanda,pureza,talante,recinto,semilla,tocino,remiendo,remesa,regate,tisana,gozada,pujanza,visera,nevera,tijera,donaire,soborno,pineda,visillo,talante,donaire,semilla,tisana,soborno,gozada,visillo,tocino,secuela,pujanza,silicio,nevera,remiendo,recinto,gusano,pureza,cigarro,regate,pineda,remesa,bufanda,tejado,tijera,visera,talante,donaire,semilla,tisana,soborno,gozada,visillo,tocino,secuela,pujanza,silicio,nevera,remiendo,recinto,gusano,pureza,cigarro,regate,pineda,remesa,bufanda,tejado,tijera,visera,secano,pocilga,,,,,,,,,0,0,0,0,0,0,0,11,,,,,,,None,,,,part001,A,2019_Feb_27_1427,Syllabification,3.0.5,60.2282676631124,
fillerItem6,reliquia,laguna,subsuelo,vistazo,tapete,piscina,tarjeta,viruela,rasguño,tersura,regazo,rastrillo,remanso,cornada,tufillo,cizalla,tendencia,pesquisa,viraje,pileta,relente,pozuelo,pescuezo,bastilla,reliquia,laguna,subsuelo,vistazo,tapete,piscina,tarjeta,viruela,rasguño,tersura,regazo,rastrillo,remanso,cornada,tufillo,cizalla,tendencia,pesquisa,viraje,pileta,relente,pozuelo,pescuezo,bastilla,viruela,relente,tersura,tufillo,pozuelo,cizalla,bastilla,regazo,vistazo,tendencia,tapete,viraje,rastrillo,rasguño,subsuelo,tarjeta,laguna,cornada,pescuezo,remanso,piscina,reliquia,pileta,pesquisa,viruela,relente,tersura,tufillo,pozuelo,cizalla,bastilla,regazo,vistazo,tendencia,tapete,viraje,rastrillo,rasguño,subsuelo,tarjeta,laguna,cornada,pescuezo,remanso,piscina,reliquia,pileta,pesquisa,ponencia,sandalia,,,,,,,,,0,0,0,0,0,1,1,6,,,,,,,None,,,,part001,A,2019_Feb_27_1427,Syllabification,3.0.5,60.2282676631124,
fillerItem2,zumbido,jilguero,soltura,venganza,vestuario,tinglado,sarmiento,tornillo,largueza,tortuga,portazo,gustillo,mortaja,gorjeo,laxante,pestillo,polvillo,lanzazo,perchero,lenguaje,cordero,sonrisa,campaña,balbina,zumbido,jilguero,soltura,venganza,vestuario,tinglado,sarmiento,tornillo,largueza,tortuga,portazo,gustillo,mortaja,gorjeo,laxante,pestillo,polvillo,lanzazo,perchero,lenguaje,cordero,sonrisa,campaña,balbina,tornillo,cordero,tortuga,laxante,sonrisa,pestillo,balbina,portazo,venganza,polvillo,vestuario,perchero,gustillo,largueza,soltura,sarmiento,jilguero,gorjeo,campaña,mortaja,tinglado,zumbido,lenguaje,lanzazo,tornillo,cordero,tortuga,laxante,sonrisa,pestillo,balbina,portazo,venganza,polvillo,vestuario,perchero,gustillo,largueza,soltura,sarmiento,jilguero,gorjeo,campaña,mortaja,tinglado,zumbido,lenguaje,lanzazo,fondillo,captura,,,,,,,,,0,0,0,0,0,2,2,2,,,,,,,None,,,,part001,A,2019_Feb_27_1427,Syllabification,3.0.5,60.2282676631124,
fillerItem10,soneto,dureza,ginebra,zapato,vivencia,tumulto,tobillo,vivienda,reducto,renombre,vereda,farola,luneta,regato,rivera,velorio,solera,vigencia,barbecho,vivero,fogata,sobaco,tinaja,bufete,soneto,dureza,ginebra,zapato,vivencia,tumulto,tobillo,vivienda,reducto,renombre,vereda,farola,luneta,regato,rivera,velorio,solera,vigencia,barbecho,vivero,fogata,sobaco,tinaja,bufete,vivienda,fogata,renombre,rivera,sobaco,velorio,bufete,vereda,zapato,solera,vivencia,barbecho,farola,reducto,ginebra,tobillo,dureza,regato,tinaja,luneta,tumulto,soneto,vivero,vigencia,vivienda,fogata,renombre,rivera,sobaco,velorio,bufete,vereda,zapato,solera,vivencia,barbecho,farola,reducto,ginebra,tobillo,dureza,regato,tinaja,luneta,tumulto,soneto,vivero,vigencia,pimiento,piragua,,,,,,,,,0,0,0,0,0,3,3,10,,,,,,,None,,,,part001,A,2019_Feb_27_1427,Syllabification,3.0.5,60.2282676631124,
fillerItem8,poniente,duquesa,juguete,vejiga,tibieza,pupitre,tesoro,butaca,recado,sotana,reguero,tetilla,rimero,cigarra,rapiña,ribazo,sopapo,cigoto,naranjo,veleta,gomina,sureste,pomada,lucero,poniente,duquesa,juguete,vejiga,tibieza,pupitre,tesoro,butaca,recado,sotana,reguero,tetilla,rimero,cigarra,rapiña,ribazo,sopapo,cigoto,naranjo,veleta,gomina,sureste,pomada,lucero,butaca,gomina,sotana,rapiña,sureste,ribazo,lucero,reguero,vejiga,sopapo,tibieza,naranjo,tetilla,recado,juguete,tesoro,duquesa,cigarra,pomada,rimero,pupitre,poniente,veleta,cigoto,butaca,gomina,sotana,rapiña,sureste,ribazo,lucero,reguero,vejiga,sopapo,tibieza,naranjo,tetilla,recado,juguete,tesoro,duquesa,cigarra,pomada,rimero,pupitre,poniente,veleta,cigoto,pimienta,cirilo,,,,,,,,,0,0,0,0,0,4,4,8,,,,,,,None,,,,part001,A,2019_Feb_27_1427,Syllabification,3.0.5,60.2282676631124,
fillerItem7,riqueza,jacinto,suceso,taquilla,dolencia,vigilia,fijeza,lavabo,tarima,picota,recurso,recato,tobera,regata,resabio,rebeca,cimiento,bufido,redada,legajo,rudeza,barcaza,fajardo,salero,riqueza,jacinto,suceso,taquilla,dolencia,vigilia,fijeza,lavabo,tarima,picota,recurso,recato,tobera,regata,resabio,rebeca,cimiento,bufido,redada,legajo,rudeza,barcaza,fajardo,salero,lavabo,rudeza,picota,resabio,barcaza,rebeca,salero,recurso,taquilla,cimiento,dolencia,redada,recato,tarima,suceso,fijeza,jacinto,regata,fajardo,tobera,vigilia,riqueza,legajo,bufido,lavabo,rudeza,picota,resabio,barcaza,rebeca,salero,recurso,taquilla,cimiento,dolencia,redada,recato,tarima,suceso,fijeza,jacinto,regata,fajardo,tobera,vigilia,riqueza,legajo,bufido,ranura,piropo,,,,,,,,,0,0,0,0,0,5,5,7,,,,,,,None,,,,part001,A,2019_Feb_27_1427,Syllabification,3.0.5,60.2282676631124,
carrierItem,ganchillo,pestaña,pereza,morera,murmullo,joroba,culebra,centavo,volante,balada,linterna,bolero,castillo,paloma,montaña,campana,garaje,corona,costilla,rosquilla,pastilla,limpieza,cereza,coraje,ganchillo,pestaña,pereza,morera,murmullo,joroba,culebra,centavo,volante,balada,linterna,bolero,castillo,paloma,montaña,campana,garaje,corona,costilla,rosquilla,pastilla,limpieza,cereza,coraje,ceniza,pasaje,baldosa,moneda,limosna,camisa,corbata,linaje,morcillo,garganta,muralla,cosecha,bolsillo,voltaje,permiso,culpable,peseta,palmera,cerveza,casilla,jornada,ganancia,rosario,corteza,ceniza,pasaje,baldosa,moneda,limosna,camisa,corbata,linaje,morcillo,garganta,muralla,cosecha,bolsillo,voltaje,permiso,culpable,peseta,palmera,cerveza,casilla,jornada,ganancia,rosario,corteza,deltoides,delirio,,,,,,,,,0,0,0,0,0,6,6,0,,,,,,,y,1.13592568400054,,,part001,A,2019_Feb_27_1427,Syllabification,3.0.5,60.2282676631124,
fillerItem1,ternera,langosta,sandía,pulsera,testigo,zancada,pintura,tardanza,juntura,rendija,tartana,narciso,punzada,gorguera,submundo,pescante,lumbrera,bengala,victoria,pantalla,certeza,portillo,congreso,ventana,ternera,langosta,sandía,pulsera,testigo,zancada,pintura,tardanza,juntura,rendija,tartana,narciso,punzada,gorguera,submundo,pescante,lumbrera,bengala,victoria,pantalla,certeza,portillo,congreso,ventana,tardanza,certeza,rendija,submundo,portillo,pescante,ventana,tartana,pulsera,lumbrera,testigo,victoria,narciso,juntura,sandía,pintura,langosta,gorguera,congreso,punzada,zancada,ternera,pantalla,bengala,tardanza,certeza,rendija,submundo,portillo,pescante,ventana,tartana,pulsera,lumbrera,testigo,victoria,narciso,juntura,sandía,pintura,langosta,gorguera,congreso,punzada,zancada,ternera,pantalla,bengala,cornisa,zarzuela,,,,,,,,,0,0,0,0,0,7,7,1,,,,,,,None,,,,part001,A,2019_Feb_27_1427,Syllabification,3.0.5,60.2282676631124,
fillerItem4,portento,doncella,solvencia,piltrafa,lactancia,cintura,tortazo,durmiente,gentuza,torpeza,zarpazo,fundillo,lenteja,costumbre,salchicha,cernuda,pinchazo,vendimia,persiana,campiña,mordaza,garbanzo,confianza,percance,portento,doncella,solvencia,piltrafa,lactancia,cintura,tortazo,durmiente,gentuza,torpeza,zarpazo,fundillo,lenteja,costumbre,salchicha,cernuda,pinchazo,vendimia,persiana,campiña,mordaza,garbanzo,confianza,percance,durmiente,mordaza,torpeza,salchicha,garbanzo,cernuda,percance,zarpazo,piltrafa,pinchazo,lactancia,persiana,fundillo,gentuza,solvencia,tortazo,doncella,costumbre,confianza,lenteja,cintura,portento,campiña,vendimia,durmiente,mordaza,torpeza,salchicha,garbanzo,cernuda,percance,zarpazo,piltrafa,pinchazo,lactancia,persiana,fundillo,gentuza,solvencia,tortazo,doncella,costumbre,confianza,lenteja,cintura,portento,campiña,vendimia,sarcasmo,pancarta,,,,,,,,,0,0,0,0,0,8,8,4,,,,,,,None,,,,part001,A,2019_Feb_27_1427,Syllabification,3.0.5,60.2282676631124,
fillerItem5,sendero,fantoche,jactancia,pulgada,vestigio,tintero,vertiente,burbuja,serpiente,sortija,polvera,farsante,vendaje,fortuna,lectura,felpudo,mensaje,cencerro,barbilla,putada,mordisco,corneta,bolzano,bandera,sendero,fantoche,jactancia,pulgada,vestigio,tintero,vertiente,burbuja,serpiente,sortija,polvera,farsante,vendaje,fortuna,lectura,felpudo,mensaje,cencerro,barbilla,putada,mordisco,corneta,bolzano,bandera,burbuja,mordisco,sortija,lectura,corneta,felpudo,bandera,polvera,pulgada,mensaje,vestigio,barbilla,farsante,serpiente,jactancia,vertiente,fantoche,fortuna,bolzano,vendaje,tintero,sendero,putada,cencerro,burbuja,mordisco,sortija,lectura,corneta,felpudo,bandera,polvera,pulgada,mensaje,vestigio,barbilla,farsante,serpiente,jactancia,vertiente,fantoche,fortuna,bolzano,vendaje,tintero,sendero,putada,cencerro,pandilla,suspenso,,,,,,,,,0,0,0,0,0,9,9,5,,,,,,,None,,,,part001,A,2019_Feb_27_1427,Syllabification,3.0.5,60.2282676631124,
fillerItem9,rejilla,dominio,jinete,cilindro,pizarra,bigote,teniente,ribera,sepulcro,sonido,recodo,jarabe,fineza,giralda,tesina,velero,tiniebla,vinilo,navaja,pitillo,ciruelo,torija,gotera,becerro,rejilla,dominio,jinete,cilindro,pizarra,bigote,teniente,ribera,sepulcro,sonido,recodo,jarabe,fineza,giralda,tesina,velero,tiniebla,vinilo,navaja,pitillo,ciruelo,torija,gotera,becerro,ribera,ciruelo,sonido,tesina,torija,velero,becerro,recodo,cilindro,tiniebla,pizarra,navaja,jarabe,sepulcro,jinete,teniente,dominio,giralda,gotera,fineza,bigote,rejilla,pitillo,vinilo,ribera,ciruelo,sonido,tesina,torija,velero,becerro,recodo,cilindro,tiniebla,pizarra,navaja,jarabe,sepulcro,jinete,teniente,dominio,giralda,gotera,fineza,bigote,rejilla,pitillo,vinilo,jarana,jaqueca,,,,,,,,,0,0,0,0,0,10,10,9,,,,,,,None,,,,part001,A,2019_Feb_27_1427,Syllabification,3.0.5,60.2282676631124,
fillerItem3,postigo,gordura,silbido,fastidio,poltrona,ventaja,verdura,ruptura,ternura,sordera,vergüenza,tumbona,puntilla,conducta,vislumbre,filete,lenguado,ventisca,perfidia,cambiazo,cordura,respuesta,concepto,palmada,postigo,gordura,silbido,fastidio,poltrona,ventaja,verdura,ruptura,ternura,sordera,vergüenza,tumbona,puntilla,conducta,vislumbre,filete,lenguado,ventisca,perfidia,cambiazo,cordura,respuesta,concepto,palmada,ruptura,cordura,sordera,vislumbre,respuesta,filete,palmada,vergüenza,fastidio,lenguado,poltrona,perfidia,tumbona,ternura,silbido,verdura,gordura,conducta,concepto,puntilla,ventaja,postigo,cambiazo,ventisca,ruptura,cordura,sordera,vislumbre,respuesta,filete,palmada,vergüenza,fastidio,lenguado,poltrona,perfidia,tumbona,ternura,silbido,verdura,gordura,conducta,concepto,puntilla,ventaja,postigo,cambiazo,ventisca,zarcillo,jasmina,,,,,,,,,0,0,0,0,0,11,11,3,,,,,,,None,,,,part001,A,2019_Feb_27_1427,Syllabification,3.0.5,60.2282676631124,
targetSyl,ga,pes,per,mor,mu,jo,cu,cen,vol,ba,li,bo,ca,pal,mon,ca,gar,cor,co,ros,pas,lim,ce,co,gan,pe,pe,mo,mur,jor,cul,ce,vo,bal,lin,bol,cas,pa,mo,cam,ga,co,cos,ro,pa,li,cer,cor,cen,pas,ba,mon,lim,ca,co,li,mor,gar,mu,co,bo,vol,per,cu,pes,pal,ce,ca,jo,ga,ros,cor,ce,pa,bal,mo,li,cam,cor,lin,mo,ga,mur,cos,bol,vo,pe,cul,pe,pa,cer,cas,jor,gan,ro,co,del,de,,,,,,,,,0,0,0,0,,,,,,,,,,,,,,,part001,A,2019_Feb_27_1427,Syllabification,3.0.5,60.2282676631124,
fillerItem2,zumbido,jilguero,soltura,venganza,vestuario,tinglado,sarmiento,tornillo,largueza,tortuga,portazo,gustillo,mortaja,gorjeo,laxante,pestillo,polvillo,lanzazo,perchero,lenguaje,cordero,sonrisa,campaña,balbina,zumbido,jilguero,soltura,venganza,vestuario,tinglado,sarmiento,tornillo,largueza,tortuga,portazo,gustillo,mortaja,gorjeo,laxante,pestillo,polvillo,lanzazo,perchero,lenguaje,cordero,sonrisa,campaña,balbina,tornillo,cordero,tortuga,laxante,sonrisa,pestillo,balbina,portazo,venganza,polvillo,vestuario,perchero,gustillo,largueza,soltura,sarmiento,jilguero,gorjeo,campaña,mortaja,tinglado,zumbido,lenguaje,lanzazo,tornillo,cordero,tortuga,laxante,sonrisa,pestillo,balbina,portazo,venganza,polvillo,vestuario,perchero,gustillo,largueza,soltura,sarmiento,jilguero,gorjeo,campaña,mortaja,tinglado,zumbido,lenguaje,lanzazo,fondillo,captura,,,,,,,,,1,0,1,0,0,0,0,2,,,,,,,None,,,,part001,A,2019_Feb_27_1427,Syllabification,3.0.5,60.2282676631124,
fillerItem1,ternera,langosta,sandía,pulsera,testigo,zancada,pintura,tardanza,juntura,rendija,tartana,narciso,punzada,gorguera,submundo,pescante,lumbrera,bengala,victoria,pantalla,certeza,portillo,congreso,ventana,ternera,langosta,sandía,pulsera,testigo,zancada,pintura,tardanza,juntura,rendija,tartana,narciso,punzada,gorguera,submundo,pescante,lumbrera,bengala,victoria,pantalla,certeza,portillo,congreso,ventana,tardanza,certeza,rendija,submundo,portillo,pescante,ventana,tartana,pulsera,lumbrera,testigo,victoria,narciso,juntura,sandía,pintura,langosta,gorguera,congreso,punzada,zancada,ternera,pantalla,bengala,tardanza,certeza,rendija,submundo,portillo,pescante,ventana,tartana,pulsera,lumbrera,testigo,victoria,narciso,juntura,sandía,pintura,langosta,gorguera,congreso,punzada,zancada,ternera,pantalla,bengala,cornisa,zarzuela,,,,,,,,,1,0,1,0,0,1,1,1,,,,,,,None,,,,part001,A,2019_Feb_27_1427,Syllabification,3.0.5,60.2282676631124,
fillerItem8,poniente,duquesa,juguete,vejiga,tibieza,pupitre,tesoro,butaca,recado,sotana,reguero,tetilla,rimero,cigarra,rapiña,ribazo,sopapo,cigoto,naranjo,veleta,gomina,sureste,pomada,lucero,poniente,duquesa,juguete,vejiga,tibieza,pupitre,tesoro,butaca,recado,sotana,reguero,tetilla,rimero,cigarra,rapiña,ribazo,sopapo,cigoto,naranjo,veleta,gomina,sureste,pomada,lucero,butaca,gomina,sotana,rapiña,sureste,ribazo,lucero,reguero,vejiga,sopapo,tibieza,naranjo,tetilla,recado,juguete,tesoro,duquesa,cigarra,pomada,rimero,pupitre,poniente,veleta,cigoto,butaca,gomina,sotana,rapiña,sureste,ribazo,lucero,reguero,vejiga,sopapo,tibieza,naranjo,tetilla,recado,juguete,tesoro,duquesa,cigarra,pomada,rimero,pupitre,poniente,veleta,cigoto,pimienta,cirilo,,,,,,,,,1,0,1,0,0,2,2,8,,,,,,,None,,,,part001,A,2019_Feb_27_1427,Syllabification,3.0.5,60.2282676631124,
fillerItem3,postigo,gordura,silbido,fastidio,poltrona,ventaja,verdura,ruptura,ternura,sordera,vergüenza,tumbona,puntilla,conducta,vislumbre,filete,lenguado,ventisca,perfidia,cambiazo,cordura,respuesta,concepto,palmada,postigo,gordura,silbido,fastidio,poltrona,ventaja,verdura,ruptura,ternura,sordera,vergüenza,tumbona,puntilla,conducta,vislumbre,filete,lenguado,ventisca,perfidia,cambiazo,cordura,respuesta,concepto,palmada,ruptura,cordura,sordera,vislumbre,respuesta,filete,palmada,vergüenza,fastidio,lenguado,poltrona,perfidia,tumbona,ternura,silbido,verdura,gordura,conducta,concepto,puntilla,ventaja,postigo,cambiazo,ventisca,ruptura,cordura,sordera,vislumbre,respuesta,filete,palmada,vergüenza,fastidio,lenguado,poltrona,perfidia,tumbona,ternura,silbido,verdura,gordura,conducta,concepto,puntilla,ventaja,postigo,cambiazo,ventisca,zarcillo,jasmina,,,,,,,,,1,0,1,0,0,3,3,3,,,,,,,None,,,,part001,A,2019_Feb_27_1427,Syllabification,3.0.5,60.2282676631124,
fillerItem4,portento,doncella,solvencia,piltrafa,lactancia,cintura,tortazo,durmiente,gentuza,torpeza,zarpazo,fundillo,lenteja,costumbre,salchicha,cernuda,pinchazo,vendimia,persiana,campiña,mordaza,garbanzo,confianza,percance,portento,doncella,solvencia,piltrafa,lactancia,cintura,tortazo,durmiente,gentuza,torpeza,zarpazo,fundillo,lenteja,costumbre,salchicha,cernuda,pinchazo,vendimia,persiana,campiña,mordaza,garbanzo,confianza,percance,durmiente,mordaza,torpeza,salchicha,garbanzo,cernuda,percance,zarpazo,piltrafa,pinchazo,lactancia,persiana,fundillo,gentuza,solvencia,tortazo,doncella,costumbre,confianza,lenteja,cintura,portento,campiña,vendimia,durmiente,mordaza,torpeza,salchicha,garbanzo,cernuda,percance,zarpazo,piltrafa,pinchazo,lactancia,persiana,fundillo,gentuza,solvencia,tortazo,doncella,costumbre,confianza,lenteja,cintura,portento,campiña,vendimia,sarcasmo,pancarta,,,,,,,,,1,0,1,0,0,4,4,4,,,,,,,None,,,,part001,A,2019_Feb_27_1427,Syllabification,3.0.5,60.2282676631124,
fillerItem5,sendero,fantoche,jactancia,pulgada,vestigio,tintero,vertiente,burbuja,serpiente,sortija,polvera,farsante,vendaje,fortuna,lectura,felpudo,mensaje,cencerro,barbilla,putada,mordisco,corneta,bolzano,bandera,sendero,fantoche,jactancia,pulgada,vestigio,tintero,vertiente,burbuja,serpiente,sortija,polvera,farsante,vendaje,fortuna,lectura,felpudo,mensaje,cencerro,barbilla,putada,mordisco,corneta,bolzano,bandera,burbuja,mordisco,sortija,lectura,corneta,felpudo,bandera,polvera,pulgada,mensaje,vestigio,barbilla,farsante,serpiente,jactancia,vertiente,fantoche,fortuna,bolzano,vendaje,tintero,sendero,putada,cencerro,burbuja,mordisco,sortija,lectura,corneta,felpudo,bandera,polvera,pulgada,mensaje,vestigio,barbilla,farsante,serpiente,jactancia,vertiente,fantoche,fortuna,bolzano,vendaje,tintero,sendero,putada,cencerro,pandilla,suspenso,,,,,,,,,1,0,1,0,0,5,5,5,,,,,,,None,,,,part001,A,2019_Feb_27_1427,Syllabification,3.0.5,60.2282676631124,
fillerItem6,reliquia,laguna,subsuelo,vistazo,tapete,piscina,tarjeta,viruela,rasguño,tersura,regazo,rastrillo,remanso,cornada,tufillo,cizalla,tendencia,pesquisa,viraje,pileta,relente,pozuelo,pescuezo,bastilla,reliquia,laguna,subsuelo,vistazo,tapete,piscina,tarjeta,viruela,rasguño,tersura,regazo,rastrillo,remanso,cornada,tufillo,cizalla,tendencia,pesquisa,viraje,pileta,relente,pozuelo,pescuezo,bastilla,viruela,relente,tersura,tufillo,pozuelo,cizalla,bastilla,regazo,vistazo,tendencia,tapete,viraje,rastrillo,rasguño,subsuelo,tarjeta,laguna,cornada,pescuezo,remanso,piscina,reliquia,pileta,pesquisa,viruela,relente,tersura,tufillo,pozuelo,cizalla,bastilla,regazo,vistazo,tendencia,tapete,viraje,rastrillo,rasguño,subsuelo,tarjeta,laguna,cornada,pescuezo,remanso,piscina,reliquia,pileta,pesquisa,ponencia,sandalia,,,,,,,,,1,0,1,0,0,6,6,6,,,,,,,None,,,,part001,A,2019_Feb_27_1427,Syllabification,3.0.5,60.2282676631124,
carrierItem,ganchillo,pestaña,pereza,morera,murmullo,joroba,culebra,centavo,volante,balada,linterna,bolero,castillo,paloma,montaña,campana,garaje,corona,costilla,rosquilla,pastilla,limpieza,cereza,coraje,ganchillo,pestaña,pereza,morera,murmullo,joroba,culebra,centavo,volante,balada,linterna,bolero,castillo,paloma,montaña,campana,garaje,corona,costilla,rosquilla,pastilla,limpieza,cereza,coraje,ceniza,pasaje,baldosa,moneda,limosna,camisa,corbata,linaje,morcillo,garganta,muralla,cosecha,bolsillo,voltaje,permiso,culpable,peseta,palmera,cerveza,casilla,jornada,ganancia,rosario,corteza,ceniza,pasaje,baldosa,moneda,limosna,camisa,corbata,linaje,morcillo,garganta,muralla,cosecha,bolsillo,voltaje,permiso,culpable,peseta,palmera,cerveza,casilla,jornada,ganancia,rosario,corteza,deltoides,delirio,,,,,,,,,1,0,1,0,0,7,7,0,,,,,,,y,0.7858152689987037,,,part001,A,2019_Feb_27_1427,Syllabification,3.0.5,60.2282676631124,
fillerItem11,tejado,cigarro,gusano,secuela,silicio,bufanda,pureza,talante,recinto,semilla,tocino,remiendo,remesa,regate,tisana,gozada,pujanza,visera,nevera,tijera,donaire,soborno,pineda,visillo,tejado,cigarro,gusano,secuela,silicio,bufanda,pureza,talante,recinto,semilla,tocino,remiendo,remesa,regate,tisana,gozada,pujanza,visera,nevera,tijera,donaire,soborno,pineda,visillo,talante,donaire,semilla,tisana,soborno,gozada,visillo,tocino,secuela,pujanza,silicio,nevera,remiendo,recinto,gusano,pureza,cigarro,regate,pineda,remesa,bufanda,tejado,tijera,visera,talante,donaire,semilla,tisana,soborno,gozada,visillo,tocino,secuela,pujanza,silicio,nevera,remiendo,recinto,gusano,pureza,cigarro,regate,pineda,remesa,bufanda,tejado,tijera,visera,secano,pocilga,,,,,,,,,1,0,1,0,0,8,8,11,,,,,,,None,,,,part001,A,2019_Feb_27_1427,Syllabification,3.0.5,60.2282676631124,
fillerItem10,soneto,dureza,ginebra,zapato,vivencia,tumulto,tobillo,vivienda,reducto,renombre,vereda,farola,luneta,regato,rivera,velorio,solera,vigencia,barbecho,vivero,fogata,sobaco,tinaja,bufete,soneto,dureza,ginebra,zapato,vivencia,tumulto,tobillo,vivienda,reducto,renombre,vereda,farola,luneta,regato,rivera,velorio,solera,vigencia,barbecho,vivero,fogata,sobaco,tinaja,bufete,vivienda,fogata,renombre,rivera,sobaco,velorio,bufete,vereda,zapato,solera,vivencia,barbecho,farola,reducto,ginebra,tobillo,dureza,regato,tinaja,luneta,tumulto,soneto,vivero,vigencia,vivienda,fogata,renombre,rivera,sobaco,velorio,bufete,vereda,zapato,solera,vivencia,barbecho,farola,reducto,ginebra,tobillo,dureza,regato,tinaja,luneta,tumulto,soneto,vivero,vigencia,pimiento,piragua,,,,,,,,,1,0,1,0,0,9,9,10,,,,,,,None,,,,part001,A,2019_Feb_27_1427,Syllabification,3.0.5,60.2282676631124,
fillerItem9,rejilla,dominio,jinete,cilindro,pizarra,bigote,teniente,ribera,sepulcro,sonido,recodo,jarabe,fineza,giralda,tesina,velero,tiniebla,vinilo,navaja,pitillo,ciruelo,torija,gotera,becerro,rejilla,dominio,jinete,cilindro,pizarra,bigote,teniente,ribera,sepulcro,sonido,recodo,jarabe,fineza,giralda,tesina,velero,tiniebla,vinilo,navaja,pitillo,ciruelo,torija,gotera,becerro,ribera,ciruelo,sonido,tesina,torija,velero,becerro,recodo,cilindro,tiniebla,pizarra,navaja,jarabe,sepulcro,jinete,teniente,dominio,giralda,gotera,fineza,bigote,rejilla,pitillo,vinilo,ribera,ciruelo,sonido,tesina,torija,velero,becerro,recodo,cilindro,tiniebla,pizarra,navaja,jarabe,sepulcro,jinete,teniente,dominio,giralda,gotera,fineza,bigote,rejilla,pitillo,vinilo,jarana,jaqueca,,,,,,,,,1,0,1,0,0,10,10,9,,,,,,,None,,,,part001,A,2019_Feb_27_1427,Syllabification,3.0.5,60.2282676631124,
fillerItem7,riqueza,jacinto,suceso,taquilla,dolencia,vigilia,fijeza,lavabo,tarima,picota,recurso,recato,tobera,regata,resabio,rebeca,cimiento,bufido,redada,legajo,rudeza,barcaza,fajardo,salero,riqueza,jacinto,suceso,taquilla,dolencia,vigilia,fijeza,lavabo,tarima,picota,recurso,recato,tobera,regata,resabio,rebeca,cimiento,bufido,redada,legajo,rudeza,barcaza,fajardo,salero,lavabo,rudeza,picota,resabio,barcaza,rebeca,salero,recurso,taquilla,cimiento,dolencia,redada,recato,tarima,suceso,fijeza,jacinto,regata,fajardo,tobera,vigilia,riqueza,legajo,bufido,lavabo,rudeza,picota,resabio,barcaza,rebeca,salero,recurso,taquilla,cimiento,dolencia,redada,recato,tarima,suceso,fijeza,jacinto,regata,fajardo,tobera,vigilia,riqueza,legajo,bufido,ranura,piropo,,,,,,,,,1,0,1,0,0,11,11,7,,,,,,,None,,,,part001,A,2019_Feb_27_1427,Syllabification,3.0.5,60.2282676631124,
targetSyl,ga,pes,per,mor,mu,jo,cu,cen,vol,ba,li,bo,ca,pal,mon,ca,gar,cor,co,ros,pas,lim,ce,co,gan,pe,pe,mo,mur,jor,cul,ce,vo,bal,lin,bol,cas,pa,mo,cam,ga,co,cos,ro,pa,li,cer,cor,cen,pas,ba,mon,lim,ca,co,li,mor,gar,mu,co,bo,vol,per,cu,pes,pal,ce,ca,jo,ga,ros,cor,ce,pa,bal,mo,li,cam,cor,lin,mo,ga,mur,cos,bol,vo,pe,cul,pe,pa,cer,cas,jor,gan,ro,co,del,de,,,,,,,,,1,0,1,0,,,,,,,,,,,,,,,part001,A,2019_Feb_27_1427,Syllabification,3.0.5,60.2282676631124,
fillerItem10,soneto,dureza,ginebra,zapato,vivencia,tumulto,tobillo,vivienda,reducto,renombre,vereda,farola,luneta,regato,rivera,velorio,solera,vigencia,barbecho,vivero,fogata,sobaco,tinaja,bufete,soneto,dureza,ginebra,zapato,vivencia,tumulto,tobillo,vivienda,reducto,renombre,vereda,farola,luneta,regato,rivera,velorio,solera,vigencia,barbecho,vivero,fogata,sobaco,tinaja,bufete,vivienda,fogata,renombre,rivera,sobaco,velorio,bufete,vereda,zapato,solera,vivencia,barbecho,farola,reducto,ginebra,tobillo,dureza,regato,tinaja,luneta,tumulto,soneto,vivero,vigencia,vivienda,fogata,renombre,rivera,sobaco,velorio,bufete,vereda,zapato,solera,vivencia,barbecho,farola,reducto,ginebra,tobillo,dureza,regato,tinaja,luneta,tumulto,soneto,vivero,vigencia,pimiento,piragua,,,,,,,,,2,0,2,0,0,0,0,10,,,,,,,None,,,,part001,A,2019_Feb_27_1427,Syllabification,3.0.5,60.2282676631124,
fillerItem9,rejilla,dominio,jinete,cilindro,pizarra,bigote,teniente,ribera,sepulcro,sonido,recodo,jarabe,fineza,giralda,tesina,velero,tiniebla,vinilo,navaja,pitillo,ciruelo,torija,gotera,becerro,rejilla,dominio,jinete,cilindro,pizarra,bigote,teniente,ribera,sepulcro,sonido,recodo,jarabe,fineza,giralda,tesina,velero,tiniebla,vinilo,navaja,pitillo,ciruelo,torija,gotera,becerro,ribera,ciruelo,sonido,tesina,torija,velero,becerro,recodo,cilindro,tiniebla,pizarra,navaja,jarabe,sepulcro,jinete,teniente,dominio,giralda,gotera,fineza,bigote,rejilla,pitillo,vinilo,ribera,ciruelo,sonido,tesina,torija,velero,becerro,recodo,cilindro,tiniebla,pizarra,navaja,jarabe,sepulcro,jinete,teniente,dominio,giralda,gotera,fineza,bigote,rejilla,pitillo,vinilo,jarana,jaqueca,,,,,,,,,2,0,2,0,0,1,1,9,,,,,,,None,,,,part001,A,2019_Feb_27_1427,Syllabification,3.0.5,60.2282676631124,
fillerItem5,sendero,fantoche,jactancia,pulgada,vestigio,tintero,vertiente,burbuja,serpiente,sortija,polvera,farsante,vendaje,fortuna,lectura,felpudo,mensaje,cencerro,barbilla,putada,mordisco,corneta,bolzano,bandera,sendero,fantoche,jactancia,pulgada,vestigio,tintero,vertiente,burbuja,serpiente,sortija,polvera,farsante,vendaje,fortuna,lectura,felpudo,mensaje,cencerro,barbilla,putada,mordisco,corneta,bolzano,bandera,burbuja,mordisco,sortija,lectura,corneta,felpudo,bandera,polvera,pulgada,mensaje,vestigio,barbilla,farsante,serpiente,jactancia,vertiente,fantoche,fortuna,bolzano,vendaje,tintero,sendero,putada,cencerro,burbuja,mordisco,sortija,lectura,corneta,felpudo,bandera,polvera,pulgada,mensaje,vestigio,barbilla,farsante,serpiente,jactancia,vertiente,fantoche,fortuna,bolzano,vendaje,tintero,sendero,putada,cencerro,pandilla,suspenso,,,,,,,,,2,0,2,0,0,2,2,5,,,,,,,None,,,,part001,A,2019_Feb_27_1427,Syllabification,3.0.5,60.2282676631124,
fillerItem3,postigo,gordura,silbido,fastidio,poltrona,ventaja,verdura,ruptura,ternura,sordera,vergüenza,tumbona,puntilla,conducta,vislumbre,filete,lenguado,ventisca,perfidia,cambiazo,cordura,respuesta,concepto,palmada,postigo,gordura,silbido,fastidio,poltrona,ventaja,verdura,ruptura,ternura,sordera,vergüenza,tumbona,puntilla,conducta,vislumbre,filete,lenguado,ventisca,perfidia,cambiazo,cordura,respuesta,concepto,palmada,ruptura,cordura,sordera,vislumbre,respuesta,filete,palmada,vergüenza,fastidio,lenguado,poltrona,perfidia,tumbona,ternura,silbido,verdura,gordura,conducta,concepto,puntilla,ventaja,postigo,cambiazo,ventisca,ruptura,cordura,sordera,vislumbre,respuesta,filete,palmada,vergüenza,fastidio,lenguado,poltrona,perfidia,tumbona,ternura,silbido,verdura,gordura,conducta,concepto,puntilla,ventaja,postigo,cambiazo,ventisca,zarcillo,jasmina,,,,,,,,,2,0,2,0,0,3,3,3,,,,,,,None,,,,part001,A,2019_Feb_27_1427,Syllabification,3.0.5,60.2282676631124,
fillerItem7,riqueza,jacinto,suceso,taquilla,dolencia,vigilia,fijeza,lavabo,tarima,picota,recurso,recato,tobera,regata,resabio,rebeca,cimiento,bufido,redada,legajo,rudeza,barcaza,fajardo,salero,riqueza,jacinto,suceso,taquilla,dolencia,vigilia,fijeza,lavabo,tarima,picota,recurso,recato,tobera,regata,resabio,rebeca,cimiento,bufido,redada,legajo,rudeza,barcaza,fajardo,salero,lavabo,rudeza,picota,resabio,barcaza,rebeca,salero,recurso,taquilla,cimiento,dolencia,redada,recato,tarima,suceso,fijeza,jacinto,regata,fajardo,tobera,vigilia,riqueza,legajo,bufido,lavabo,rudeza,picota,resabio,barcaza,rebeca,salero,recurso,taquilla,cimiento,dolencia,redada,recato,tarima,suceso,fijeza,jacinto,regata,fajardo,tobera,vigilia,riqueza,legajo,bufido,ranura,piropo,,,,,,,,,2,0,2,0,0,4,4,7,,,,,,,None,,,,part001,A,2019_Feb_27_1427,Syllabification,3.0.5,60.2282676631124,
carrierItem,ganchillo,pestaña,pereza,morera,murmullo,joroba,culebra,centavo,volante,balada,linterna,bolero,castillo,paloma,montaña,campana,garaje,corona,costilla,rosquilla,pastilla,limpieza,cereza,coraje,ganchillo,pestaña,pereza,morera,murmullo,joroba,culebra,centavo,volante,balada,linterna,bolero,castillo,paloma,montaña,campana,garaje,corona,costilla,rosquilla,pastilla,limpieza,cereza,coraje,ceniza,pasaje,baldosa,moneda,limosna,camisa,corbata,linaje,morcillo,garganta,muralla,cosecha,bolsillo,voltaje,permiso,culpable,peseta,palmera,cerveza,casilla,jornada,ganancia,rosario,corteza,ceniza,pasaje,baldosa,moneda,limosna,camisa,corbata,linaje,morcillo,garganta,muralla,cosecha,bolsillo,voltaje,permiso,culpable,peseta,palmera,cerveza,casilla,jornada,ganancia,rosario,corteza,deltoides,delirio,,,,,,,,,2,0,2,0,0,5,5,0,,,,,,,y,0.7692328660014027,,,part001,A,2019_Feb_27_1427,Syllabification,3.0.5,60.2282676631124,
fillerItem2,zumbido,jilguero,soltura,venganza,vestuario,tinglado,sarmiento,tornillo,largueza,tortuga,portazo,gustillo,mortaja,gorjeo,laxante,pestillo,polvillo,lanzazo,perchero,lenguaje,cordero,sonrisa,campaña,balbina,zumbido,jilguero,soltura,venganza,vestuario,tinglado,sarmiento,tornillo,largueza,tortuga,portazo,gustillo,mortaja,gorjeo,laxante,pestillo,polvillo,lanzazo,perchero,lenguaje,cordero,sonrisa,campaña,balbina,tornillo,cordero,tortuga,laxante,sonrisa,pestillo,balbina,portazo,venganza,polvillo,vestuario,perchero,gustillo,largueza,soltura,sarmiento,jilguero,gorjeo,campaña,mortaja,tinglado,zumbido,lenguaje,lanzazo,tornillo,cordero,tortuga,laxante,sonrisa,pestillo,balbina,portazo,venganza,polvillo,vestuario,perchero,gustillo,largueza,soltura,sarmiento,jilguero,gorjeo,campaña,mortaja,tinglado,zumbido,lenguaje,lanzazo,fondillo,captura,,,,,,,,,2,0,2,0,0,6,6,2,,,,,,,None,,,,part001,A,2019_Feb_27_1427,Syllabification,3.0.5,60.2282676631124,
fillerItem4,portento,doncella,solvencia,piltrafa,lactancia,cintura,tortazo,durmiente,gentuza,torpeza,zarpazo,fundillo,lenteja,costumbre,salchicha,cernuda,pinchazo,vendimia,persiana,campiña,mordaza,garbanzo,confianza,percance,portento,doncella,solvencia,piltrafa,lactancia,cintura,tortazo,durmiente,gentuza,torpeza,zarpazo,fundillo,lenteja,costumbre,salchicha,cernuda,pinchazo,vendimia,persiana,campiña,mordaza,garbanzo,confianza,percance,durmiente,mordaza,torpeza,salchicha,garbanzo,cernuda,percance,zarpazo,piltrafa,pinchazo,lactancia,persiana,fundillo,gentuza,solvencia,tortazo,doncella,costumbre,confianza,lenteja,cintura,portento,campiña,vendimia,durmiente,mordaza,torpeza,salchicha,garbanzo,cernuda,percance,zarpazo,piltrafa,pinchazo,lactancia,persiana,fundillo,gentuza,solvencia,tortazo,doncella,costumbre,confianza,lenteja,cintura,portento,campiña,vendimia,sarcasmo,pancarta,,,,,,,,,2,0,2,0,0,7,7,4,,,,,,,None,,,,part001,A,2019_Feb_27_1427,Syllabification,3.0.5,60.2282676631124,
fillerItem1,ternera,langosta,sandía,pulsera,testigo,zancada,pintura,tardanza,juntura,rendija,tartana,narciso,punzada,gorguera,submundo,pescante,lumbrera,bengala,victoria,pantalla,certeza,portillo,congreso,ventana,ternera,langosta,sandía,pulsera,testigo,zancada,pintura,tardanza,juntura,rendija,tartana,narciso,punzada,gorguera,submundo,pescante,lumbrera,bengala,victoria,pantalla,certeza,portillo,congreso,ventana,tardanza,certeza,rendija,submundo,portillo,pescante,ventana,tartana,pulsera,lumbrera,testigo,victoria,narciso,juntura,sandía,pintura,langosta,gorguera,congreso,punzada,zancada,ternera,pantalla,bengala,tardanza,certeza,rendija,submundo,portillo,pescante,ventana,tartana,pulsera,lumbrera,testigo,victoria,narciso,juntura,sandía,pintura,langosta,gorguera,congreso,punzada,zancada,ternera,pantalla,bengala,cornisa,zarzuela,,,,,,,,,2,0,2,0,0,8,8,1,,,,,,,None,,,,part001,A,2019_Feb_27_1427,Syllabification,3.0.5,60.2282676631124,
fillerItem8,poniente,duquesa,juguete,vejiga,tibieza,pupitre,tesoro,butaca,recado,sotana,reguero,tetilla,rimero,cigarra,rapiña,ribazo,sopapo,cigoto,naranjo,veleta,gomina,sureste,pomada,lucero,poniente,duquesa,juguete,vejiga,tibieza,pupitre,tesoro,butaca,recado,sotana,reguero,tetilla,rimero,cigarra,rapiña,ribazo,sopapo,cigoto,naranjo,veleta,gomina,sureste,pomada,lucero,butaca,gomina,sotana,rapiña,sureste,ribazo,lucero,reguero,vejiga,sopapo,tibieza,naranjo,tetilla,recado,juguete,tesoro,duquesa,cigarra,pomada,rimero,pupitre,poniente,veleta,cigoto,butaca,gomina,sotana,rapiña,sureste,ribazo,lucero,reguero,vejiga,sopapo,tibieza,naranjo,tetilla,recado,juguete,tesoro,duquesa,cigarra,pomada,rimero,pupitre,poniente,veleta,cigoto,pimienta,cirilo,,,,,,,,,2,0,2,0,0,9,9,8,,,,,,,None,,,,part001,A,2019_Feb_27_1427,Syllabification,3.0.5,60.2282676631124,
fillerItem11,tejado,cigarro,gusano,secuela,silicio,bufanda,pureza,talante,recinto,semilla,tocino,remiendo,remesa,regate,tisana,gozada,pujanza,visera,nevera,tijera,donaire,soborno,pineda,visillo,tejado,cigarro,gusano,secuela,silicio,bufanda,pureza,talante,recinto,semilla,tocino,remiendo,remesa,regate,tisana,gozada,pujanza,visera,nevera,tijera,donaire,soborno,pineda,visillo,talante,donaire,semilla,tisana,soborno,gozada,visillo,tocino,secuela,pujanza,silicio,nevera,remiendo,recinto,gusano,pureza,cigarro,regate,pineda,remesa,bufanda,tejado,tijera,visera,talante,donaire,semilla,tisana,soborno,gozada,visillo,tocino,secuela,pujanza,silicio,nevera,remiendo,recinto,gusano,pureza,cigarro,regate,pineda,remesa,bufanda,tejado,tijera,visera,secano,pocilga,,,,,,,,,2,0,2,0,0,10,10,11,,,,,,,None,,,,part001,A,2019_Feb_27_1427,Syllabification,3.0.5,60.2282676631124,
fillerItem6,reliquia,laguna,subsuelo,vistazo,tapete,piscina,tarjeta,viruela,rasguño,tersura,regazo,rastrillo,remanso,cornada,tufillo,cizalla,tendencia,pesquisa,viraje,pileta,relente,pozuelo,pescuezo,bastilla,reliquia,laguna,subsuelo,vistazo,tapete,piscina,tarjeta,viruela,rasguño,tersura,regazo,rastrillo,remanso,cornada,tufillo,cizalla,tendencia,pesquisa,viraje,pileta,relente,pozuelo,pescuezo,bastilla,viruela,relente,tersura,tufillo,pozuelo,cizalla,bastilla,regazo,vistazo,tendencia,tapete,viraje,rastrillo,rasguño,subsuelo,tarjeta,laguna,cornada,pescuezo,remanso,piscina,reliquia,pileta,pesquisa,viruela,relente,tersura,tufillo,pozuelo,cizalla,bastilla,regazo,vistazo,tendencia,tapete,viraje,rastrillo,rasguño,subsuelo,tarjeta,laguna,cornada,pescuezo,remanso,piscina,reliquia,pileta,pesquisa,ponencia,sandalia,,,,,,,,,2,0,2,0,0,11,11,6,,,,,,,None,,,,part001,A,2019_Feb_27_1427,Syllabification,3.0.5,60.2282676631124,
targetSyl,ga,pes,per,mor,mu,jo,cu,cen,vol,ba,li,bo,ca,pal,mon,ca,gar,cor,co,ros,pas,lim,ce,co,gan,pe,pe,mo,mur,jor,cul,ce,vo,bal,lin,bol,cas,pa,mo,cam,ga,co,cos,ro,pa,li,cer,cor,cen,pas,ba,mon,lim,ca,co,li,mor,gar,mu,co,bo,vol,per,cu,pes,pal,ce,ca,jo,ga,ros,cor,ce,pa,bal,mo,li,cam,cor,lin,mo,ga,mur,cos,bol,vo,pe,cul,pe,pa,cer,cas,jor,gan,ro,co,del,de,,,,,,,,,2,0,2,0,,,,,,,,,,,,,,,part001,A,2019_Feb_27_1427,Syllabification,3.0.5,60.2282676631124,
fillerItem1,ternera,langosta,sandía,pulsera,testigo,zancada,pintura,tardanza,juntura,rendija,tartana,narciso,punzada,gorguera,submundo,pescante,lumbrera,bengala,victoria,pantalla,certeza,portillo,congreso,ventana,ternera,langosta,sandía,pulsera,testigo,zancada,pintura,tardanza,juntura,rendija,tartana,narciso,punzada,gorguera,submundo,pescante,lumbrera,bengala,victoria,pantalla,certeza,portillo,congreso,ventana,tardanza,certeza,rendija,submundo,portillo,pescante,ventana,tartana,pulsera,lumbrera,testigo,victoria,narciso,juntura,sandía,pintura,langosta,gorguera,congreso,punzada,zancada,ternera,pantalla,bengala,tardanza,certeza,rendija,submundo,portillo,pescante,ventana,tartana,pulsera,lumbrera,testigo,victoria,narciso,juntura,sandía,pintura,langosta,gorguera,congreso,punzada,zancada,ternera,pantalla,bengala,cornisa,zarzuela,,,,,,,,,3,0,3,0,0,0,0,1,,,,,,,None,,,,part001,A,2019_Feb_27_1427,Syllabification,3.0.5,60.2282676631124,
fillerItem9,rejilla,dominio,jinete,cilindro,pizarra,bigote,teniente,ribera,sepulcro,sonido,recodo,jarabe,fineza,giralda,tesina,velero,tiniebla,vinilo,navaja,pitillo,ciruelo,torija,gotera,becerro,rejilla,dominio,jinete,cilindro,pizarra,bigote,teniente,ribera,sepulcro,sonido,recodo,jarabe,fineza,giralda,tesina,velero,tiniebla,vinilo,navaja,pitillo,ciruelo,torija,gotera,becerro,ribera,ciruelo,sonido,tesina,torija,velero,becerro,recodo,cilindro,tiniebla,pizarra,navaja,jarabe,sepulcro,jinete,teniente,dominio,giralda,gotera,fineza,bigote,rejilla,pitillo,vinilo,ribera,ciruelo,sonido,tesina,torija,velero,becerro,recodo,cilindro,tiniebla,pizarra,navaja,jarabe,sepulcro,jinete,teniente,dominio,giralda,gotera,fineza,bigote,rejilla,pitillo,vinilo,jarana,jaqueca,,,,,,,,,3,0,3,0,0,1,1,9,,,,,,,None,,,,part001,A,2019_Feb_27_1427,Syllabification,3.0.5,60.2282676631124,
fillerItem4,portento,doncella,solvencia,piltrafa,lactancia,cintura,tortazo,durmiente,gentuza,torpeza,zarpazo,fundillo,lenteja,costumbre,salchicha,cernuda,pinchazo,vendimia,persiana,campiña,mordaza,garbanzo,confianza,percance,portento,doncella,solvencia,piltrafa,lactancia,cintura,tortazo,durmiente,gentuza,torpeza,zarpazo,fundillo,lenteja,costumbre,salchicha,cernuda,pinchazo,vendimia,persiana,campiña,mordaza,garbanzo,confianza,percance,durmiente,mordaza,torpeza,salchicha,garbanzo,cernuda,percance,zarpazo,piltrafa,pinchazo,lactancia,persiana,fundillo,gentuza,solvencia,tortazo,doncella,costumbre,confianza,lenteja,cintura,portento,campiña,vendimia,durmiente,mordaza,torpeza,salchicha,garbanzo,cernuda,percance,zarpazo,piltrafa,pinchazo,lactancia,persiana,fundillo,gentuza,solvencia,tortazo,doncella,costumbre,confianza,lenteja,cintura,portento,campiña,vendimia,sarcasmo,pancarta,,,,,,,,,3,0,3,0,0,2,2,4,,,,,,,None,,,,part001,A,2019_Feb_27_1427,Syllabification,3.0.5,60.2282676631124,
fillerItem6,reliquia,laguna,subsuelo,vistazo,tapete,piscina,tarjeta,viruela,rasguño,tersura,regazo,rastrillo,remanso,cornada,tufillo,cizalla,tendencia,pesquisa,viraje,pileta,relente,pozuelo,pescuezo,bastilla,reliquia,laguna,subsuelo,vistazo,tapete,piscina,tarjeta,viruela,rasguño,tersura,regazo,rastrillo,remanso,cornada,tufillo,cizalla,tendencia,pesquisa,viraje,pileta,relente,pozuelo,pescuezo,bastilla,viruela,relente,tersura,tufillo,pozuelo,cizalla,bastilla,regazo,vistazo,tendencia,tapete,viraje,rastrillo,rasguño,subsuelo,tarjeta,laguna,cornada,pescuezo,remanso,piscina,reliquia,pileta,pesquisa,viruela,relente,tersura,tufillo,pozuelo,cizalla,bastilla,regazo,vistazo,tendencia,tapete,viraje,rastrillo,rasguño,subsuelo,tarjeta,laguna,cornada,pescuezo,remanso,piscina,reliquia,pileta,pesquisa,ponencia,sandalia,,,,,,,,,3,0,3,0,0,3,3,6,,,,,,,None,,,,part001,A,2019_Feb_27_1427,Syllabification,3.0.5,60.2282676631124,
fillerItem5,sendero,fantoche,jactancia,pulgada,vestigio,tintero,vertiente,burbuja,serpiente,sortija,polvera,farsante,vendaje,fortuna,lectura,felpudo,mensaje,cencerro,barbilla,putada,mordisco,corneta,bolzano,bandera,sendero,fantoche,jactancia,pulgada,vestigio,tintero,vertiente,burbuja,serpiente,sortija,polvera,farsante,vendaje,fortuna,lectura,felpudo,mensaje,cencerro,barbilla,putada,mordisco,corneta,bolzano,bandera,burbuja,mordisco,sortija,lectura,corneta,felpudo,bandera,polvera,pulgada,mensaje,vestigio,barbilla,farsante,serpiente,jactancia,vertiente,fantoche,fortuna,bolzano,vendaje,tintero,sendero,putada,cencerro,burbuja,mordisco,sortija,lectura,corneta,felpudo,bandera,polvera,pulgada,mensaje,vestigio,barbilla,farsante,serpiente,jactancia,vertiente,fantoche,fortuna,bolzano,vendaje,tintero,sendero,putada,cencerro,pandilla,suspenso,,,,,,,,,3,0,3,0,0,4,4,5,,,,,,,None,,,,part001,A,2019_Feb_27_1427,Syllabification,3.0.5,60.2282676631124,
fillerItem10,soneto,dureza,ginebra,zapato,vivencia,tumulto,tobillo,vivienda,reducto,renombre,vereda,farola,luneta,regato,rivera,velorio,solera,vigencia,barbecho,vivero,fogata,sobaco,tinaja,bufete,soneto,dureza,ginebra,zapato,vivencia,tumulto,tobillo,vivienda,reducto,renombre,vereda,farola,luneta,regato,rivera,velorio,solera,vigencia,barbecho,vivero,fogata,sobaco,tinaja,bufete,vivienda,fogata,renombre,rivera,sobaco,velorio,bufete,vereda,zapato,solera,vivencia,barbecho,farola,reducto,ginebra,tobillo,dureza,regato,tinaja,luneta,tumulto,soneto,vivero,vigencia,vivienda,fogata,renombre,rivera,sobaco,velorio,bufete,vereda,zapato,solera,vivencia,barbecho,farola,reducto,ginebra,tobillo,dureza,regato,tinaja,luneta,tumulto,soneto,vivero,vigencia,pimiento,piragua,,,,,,,,,3,0,3,0,0,5,5,10,,,,,,,None,,,,part001,A,2019_Feb_27_1427,Syllabification,3.0.5,60.2282676631124,
fillerItem11,tejado,cigarro,gusano,secuela,silicio,bufanda,pureza,talante,recinto,semilla,tocino,remiendo,remesa,regate,tisana,gozada,pujanza,visera,nevera,tijera,donaire,soborno,pineda,visillo,tejado,cigarro,gusano,secuela,silicio,bufanda,pureza,talante,recinto,semilla,tocino,remiendo,remesa,regate,tisana,gozada,pujanza,visera,nevera,tijera,donaire,soborno,pineda,visillo,talante,donaire,semilla,tisana,soborno,gozada,visillo,tocino,secuela,pujanza,silicio,nevera,remiendo,recinto,gusano,pureza,cigarro,regate,pineda,remesa,bufanda,tejado,tijera,visera,talante,donaire,semilla,tisana,soborno,gozada,visillo,tocino,secuela,pujanza,silicio,nevera,remiendo,recinto,gusano,pureza,cigarro,regate,pineda,remesa,bufanda,tejado,tijera,visera,secano,pocilga,,,,,,,,,3,0,3,0,0,6,6,11,,,,,,,None,,,,part001,A,2019_Feb_27_1427,Syllabification,3.0.5,60.2282676631124,
carrierItem,ganchillo,pestaña,pereza,morera,murmullo,joroba,culebra,centavo,volante,balada,linterna,bolero,castillo,paloma,montaña,campana,garaje,corona,costilla,rosquilla,pastilla,limpieza,cereza,coraje,ganchillo,pestaña,pereza,morera,murmullo,joroba,culebra,centavo,volante,balada,linterna,bolero,castillo,paloma,montaña,campana,garaje,corona,costilla,rosquilla,pastilla,limpieza,cereza,coraje,ceniza,pasaje,baldosa,moneda,limosna,camisa,corbata,linaje,morcillo,garganta,muralla,cosecha,bolsillo,voltaje,permiso,culpable,peseta,palmera,cerveza,casilla,jornada,ganancia,rosario,corteza,ceniza,pasaje,baldosa,moneda,limosna,camisa,corbata,linaje,morcillo,garganta,muralla,cosecha,bolsillo,voltaje,permiso,culpable,peseta,palmera,cerveza,casilla,jornada,ganancia,rosario,corteza,deltoides,delirio,,,,,,,,,3,0,3,0,0,7,7,0,,,,,,,y,0.5859789499991166,,,part001,A,2019_Feb_27_1427,Syllabification,3.0.5,60.2282676631124,
fillerItem8,poniente,duquesa,juguete,vejiga,tibieza,pupitre,tesoro,butaca,recado,sotana,reguero,tetilla,rimero,cigarra,rapiña,ribazo,sopapo,cigoto,naranjo,veleta,gomina,sureste,pomada,lucero,poniente,duquesa,juguete,vejiga,tibieza,pupitre,tesoro,butaca,recado,sotana,reguero,tetilla,rimero,cigarra,rapiña,ribazo,sopapo,cigoto,naranjo,veleta,gomina,sureste,pomada,lucero,butaca,gomina,sotana,rapiña,sureste,ribazo,lucero,reguero,vejiga,sopapo,tibieza,naranjo,tetilla,recado,juguete,tesoro,duquesa,cigarra,pomada,rimero,pupitre,poniente,veleta,cigoto,butaca,gomina,sotana,rapiña,sureste,ribazo,lucero,reguero,vejiga,sopapo,tibieza,naranjo,tetilla,recado,juguete,tesoro,duquesa,cigarra,pomada,rimero,pupitre,poniente,veleta,cigoto,pimienta,cirilo,,,,,,,,,3,0,3,0,0,8,8,8,,,,,,,None,,,,part001,A,2019_Feb_27_1427,Syllabification,3.0.5,60.2282676631124,
fillerItem3,postigo,gordura,silbido,fastidio,poltrona,ventaja,verdura,ruptura,ternura,sordera,vergüenza,tumbona,puntilla,conducta,vislumbre,filete,lenguado,ventisca,perfidia,cambiazo,cordura,respuesta,concepto,palmada,postigo,gordura,silbido,fastidio,poltrona,ventaja,verdura,ruptura,ternura,sordera,vergüenza,tumbona,puntilla,conducta,vislumbre,filete,lenguado,ventisca,perfidia,cambiazo,cordura,respuesta,concepto,palmada,ruptura,cordura,sordera,vislumbre,respuesta,filete,palmada,vergüenza,fastidio,lenguado,poltrona,perfidia,tumbona,ternura,silbido,verdura,gordura,conducta,concepto,puntilla,ventaja,postigo,cambiazo,ventisca,ruptura,cordura,sordera,vislumbre,respuesta,filete,palmada,vergüenza,fastidio,lenguado,poltrona,perfidia,tumbona,ternura,silbido,verdura,gordura,conducta,concepto,puntilla,ventaja,postigo,cambiazo,ventisca,zarcillo,jasmina,,,,,,,,,3,0,3,0,0,9,9,3,,,,,,,None,,,,part001,A,2019_Feb_27_1427,Syllabification,3.0.5,60.2282676631124,
fillerItem2,zumbido,jilguero,soltura,venganza,vestuario,tinglado,sarmiento,tornillo,largueza,tortuga,portazo,gustillo,mortaja,gorjeo,laxante,pestillo,polvillo,lanzazo,perchero,lenguaje,cordero,sonrisa,campaña,balbina,zumbido,jilguero,soltura,venganza,vestuario,tinglado,sarmiento,tornillo,largueza,tortuga,portazo,gustillo,mortaja,gorjeo,laxante,pestillo,polvillo,lanzazo,perchero,lenguaje,cordero,sonrisa,campaña,balbina,tornillo,cordero,tortuga,laxante,sonrisa,pestillo,balbina,portazo,venganza,polvillo,vestuario,perchero,gustillo,largueza,soltura,sarmiento,jilguero,gorjeo,campaña,mortaja,tinglado,zumbido,lenguaje,lanzazo,tornillo,cordero,tortuga,laxante,sonrisa,pestillo,balbina,portazo,venganza,polvillo,vestuario,perchero,gustillo,largueza,soltura,sarmiento,jilguero,gorjeo,campaña,mortaja,tinglado,zumbido,lenguaje,lanzazo,fondillo,captura,,,,,,,,,3,0,3,0,0,10,10,2,,,,,,,None,,,,part001,A,2019_Feb_27_1427,Syllabification,3.0.5,60.2282676631124,
fillerItem7,riqueza,jacinto,suceso,taquilla,dolencia,vigilia,fijeza,lavabo,tarima,picota,recurso,recato,tobera,regata,resabio,rebeca,cimiento,bufido,redada,legajo,rudeza,barcaza,fajardo,salero,riqueza,jacinto,suceso,taquilla,dolencia,vigilia,fijeza,lavabo,tarima,picota,recurso,recato,tobera,regata,resabio,rebeca,cimiento,bufido,redada,legajo,rudeza,barcaza,fajardo,salero,lavabo,rudeza,picota,resabio,barcaza,rebeca,salero,recurso,taquilla,cimiento,dolencia,redada,recato,tarima,suceso,fijeza,jacinto,regata,fajardo,tobera,vigilia,riqueza,legajo,bufido,lavabo,rudeza,picota,resabio,barcaza,rebeca,salero,recurso,taquilla,cimiento,dolencia,redada,recato,tarima,suceso,fijeza,jacinto,regata,fajardo,tobera,vigilia,riqueza,legajo,bufido,ranura,piropo,,,,,,,,,3,0,3,0,0,11,11,7,,,,,,,None,,,,part001,A,2019_Feb_27_1427,Syllabification,3.0.5,60.2282676631124,
targetSyl,ga,pes,per,mor,mu,jo,cu,cen,vol,ba,li,bo,ca,pal,mon,ca,gar,cor,co,ros,pas,lim,ce,co,gan,pe,pe,mo,mur,jor,cul,ce,vo,bal,lin,bol,cas,pa,mo,cam,ga,co,cos,ro,pa,li,cer,cor,cen,pas,ba,mon,lim,ca,co,li,mor,gar,mu,co,bo,vol,per,cu,pes,pal,ce,ca,jo,ga,ros,cor,ce,pa,bal,mo,li,cam,cor,lin,mo,ga,mur,cos,bol,vo,pe,cul,pe,pa,cer,cas,jor,gan,ro,co,del,de,,,,,,,,,3,0,3,0,,,,,,,,,,,,,,,part001,A,2019_Feb_27_1427,Syllabification,3.0.5,60.2282676631124,
fillerItem4,portento,doncella,solvencia,piltrafa,lactancia,cintura,tortazo,durmiente,gentuza,torpeza,zarpazo,fundillo,lenteja,costumbre,salchicha,cernuda,pinchazo,vendimia,persiana,campiña,mordaza,garbanzo,confianza,percance,portento,doncella,solvencia,piltrafa,lactancia,cintura,tortazo,durmiente,gentuza,torpeza,zarpazo,fundillo,lenteja,costumbre,salchicha,cernuda,pinchazo,vendimia,persiana,campiña,mordaza,garbanzo,confianza,percance,durmiente,mordaza,torpeza,salchicha,garbanzo,cernuda,percance,zarpazo,piltrafa,pinchazo,lactancia,persiana,fundillo,gentuza,solvencia,tortazo,doncella,costumbre,confianza,lenteja,cintura,portento,campiña,vendimia,durmiente,mordaza,torpeza,salchicha,garbanzo,cernuda,percance,zarpazo,piltrafa,pinchazo,lactancia,persiana,fundillo,gentuza,solvencia,tortazo,doncella,costumbre,confianza,lenteja,cintura,portento,campiña,vendimia,sarcasmo,pancarta,,,,,,,,,4,0,4,0,0,0,0,4,,,,,,,None,,,,part001,A,2019_Feb_27_1427,Syllabification,3.0.5,60.2282676631124,
fillerItem11,tejado,cigarro,gusano,secuela,silicio,bufanda,pureza,talante,recinto,semilla,tocino,remiendo,remesa,regate,tisana,gozada,pujanza,visera,nevera,tijera,donaire,soborno,pineda,visillo,tejado,cigarro,gusano,secuela,silicio,bufanda,pureza,talante,recinto,semilla,tocino,remiendo,remesa,regate,tisana,gozada,pujanza,visera,nevera,tijera,donaire,soborno,pineda,visillo,talante,donaire,semilla,tisana,soborno,gozada,visillo,tocino,secuela,pujanza,silicio,nevera,remiendo,recinto,gusano,pureza,cigarro,regate,pineda,remesa,bufanda,tejado,tijera,visera,talante,donaire,semilla,tisana,soborno,gozada,visillo,tocino,secuela,pujanza,silicio,nevera,remiendo,recinto,gusano,pureza,cigarro,regate,pineda,remesa,bufanda,tejado,tijera,visera,secano,pocilga,,,,,,,,,4,0,4,0,0,1,1,11,,,,,,,None,,,,part001,A,2019_Feb_27_1427,Syllabification,3.0.5,60.2282676631124,
fillerItem7,riqueza,jacinto,suceso,taquilla,dolencia,vigilia,fijeza,lavabo,tarima,picota,recurso,recato,tobera,regata,resabio,rebeca,cimiento,bufido,redada,legajo,rudeza,barcaza,fajardo,salero,riqueza,jacinto,suceso,taquilla,dolencia,vigilia,fijeza,lavabo,tarima,picota,recurso,recato,tobera,regata,resabio,rebeca,cimiento,bufido,redada,legajo,rudeza,barcaza,fajardo,salero,lavabo,rudeza,picota,resabio,barcaza,rebeca,salero,recurso,taquilla,cimiento,dolencia,redada,recato,tarima,suceso,fijeza,jacinto,regata,fajardo,tobera,vigilia,riqueza,legajo,bufido,lavabo,rudeza,picota,resabio,barcaza,rebeca,salero,recurso,taquilla,cimiento,dolencia,redada,recato,tarima,suceso,fijeza,jacinto,regata,fajardo,tobera,vigilia,riqueza,legajo,bufido,ranura,piropo,,,,,,,,,4,0,4,0,0,2,2,7,,,,,,,None,,,,part001,A,2019_Feb_27_1427,Syllabification,3.0.5,60.2282676631124,
fillerItem5,sendero,fantoche,jactancia,pulgada,vestigio,tintero,vertiente,burbuja,serpiente,sortija,polvera,farsante,vendaje,fortuna,lectura,felpudo,mensaje,cencerro,barbilla,putada,mordisco,corneta,bolzano,bandera,sendero,fantoche,jactancia,pulgada,vestigio,tintero,vertiente,burbuja,serpiente,sortija,polvera,farsante,vendaje,fortuna,lectura,felpudo,mensaje,cencerro,barbilla,putada,mordisco,corneta,bolzano,bandera,burbuja,mordisco,sortija,lectura,corneta,felpudo,bandera,polvera,pulgada,mensaje,vestigio,barbilla,farsante,serpiente,jactancia,vertiente,fantoche,fortuna,bolzano,vendaje,tintero,sendero,putada,cencerro,burbuja,mordisco,sortija,lectura,corneta,felpudo,bandera,polvera,pulgada,mensaje,vestigio,barbilla,farsante,serpiente,jactancia,vertiente,fantoche,fortuna,bolzano,vendaje,tintero,sendero,putada,cencerro,pandilla,suspenso,,,,,,,,,4,0,4,0,0,3,3,5,,,,,,,None,,,,part001,A,2019_Feb_27_1427,Syllabification,3.0.5,60.2282676631124,
fillerItem3,postigo,gordura,silbido,fastidio,poltrona,ventaja,verdura,ruptura,ternura,sordera,vergüenza,tumbona,puntilla,conducta,vislumbre,filete,lenguado,ventisca,perfidia,cambiazo,cordura,respuesta,concepto,palmada,postigo,gordura,silbido,fastidio,poltrona,ventaja,verdura,ruptura,ternura,sordera,vergüenza,tumbona,puntilla,conducta,vislumbre,filete,lenguado,ventisca,perfidia,cambiazo,cordura,respuesta,concepto,palmada,ruptura,cordura,sordera,vislumbre,respuesta,filete,palmada,vergüenza,fastidio,lenguado,poltrona,perfidia,tumbona,ternura,silbido,verdura,gordura,conducta,concepto,puntilla,ventaja,postigo,cambiazo,ventisca,ruptura,cordura,sordera,vislumbre,respuesta,filete,palmada,vergüenza,fastidio,lenguado,poltrona,perfidia,tumbona,ternura,silbido,verdura,gordura,conducta,concepto,puntilla,ventaja,postigo,cambiazo,ventisca,zarcillo,jasmina,,,,,,,,,4,0,4,0,0,4,4,3,,,,,,,None,,,,part001,A,2019_Feb_27_1427,Syllabification,3.0.5,60.2282676631124,
fillerItem6,reliquia,laguna,subsuelo,vistazo,tapete,piscina,tarjeta,viruela,rasguño,tersura,regazo,rastrillo,remanso,cornada,tufillo,cizalla,tendencia,pesquisa,viraje,pileta,relente,pozuelo,pescuezo,bastilla,reliquia,laguna,subsuelo,vistazo,tapete,piscina,tarjeta,viruela,rasguño,tersura,regazo,rastrillo,remanso,cornada,tufillo,cizalla,tendencia,pesquisa,viraje,pileta,relente,pozuelo,pescuezo,bastilla,viruela,relente,tersura,tufillo,pozuelo,cizalla,bastilla,regazo,vistazo,tendencia,tapete,viraje,rastrillo,rasguño,subsuelo,tarjeta,laguna,cornada,pescuezo,remanso,piscina,reliquia,pileta,pesquisa,viruela,relente,tersura,tufillo,pozuelo,cizalla,bastilla,regazo,vistazo,tendencia,tapete,viraje,rastrillo,rasguño,subsuelo,tarjeta,laguna,cornada,pescuezo,remanso,piscina,reliquia,pileta,pesquisa,ponencia,sandalia,,,,,,,,,4,0,4,0,0,5,5,6,,,,,,,None,,,,part001,A,2019_Feb_27_1427,Syllabification,3.0.5,60.2282676631124,
fillerItem2,zumbido,jilguero,soltura,venganza,vestuario,tinglado,sarmiento,tornillo,largueza,tortuga,portazo,gustillo,mortaja,gorjeo,laxante,pestillo,polvillo,lanzazo,perchero,lenguaje,cordero,sonrisa,campaña,balbina,zumbido,jilguero,soltura,venganza,vestuario,tinglado,sarmiento,tornillo,largueza,tortuga,portazo,gustillo,mortaja,gorjeo,laxante,pestillo,polvillo,lanzazo,perchero,lenguaje,cordero,sonrisa,campaña,balbina,tornillo,cordero,tortuga,laxante,sonrisa,pestillo,balbina,portazo,venganza,polvillo,vestuario,perchero,gustillo,largueza,soltura,sarmiento,jilguero,gorjeo,campaña,mortaja,tinglado,zumbido,lenguaje,lanzazo,tornillo,cordero,tortuga,laxante,sonrisa,pestillo,balbina,portazo,venganza,polvillo,vestuario,perchero,gustillo,largueza,soltura,sarmiento,jilguero,gorjeo,campaña,mortaja,tinglado,zumbido,lenguaje,lanzazo,fondillo,captura,,,,,,,,,4,0,4,0,0,6,6,2,,,,,,,None,,,,part001,A,2019_Feb_27_1427,Syllabification,3.0.5,60.2282676631124,
fillerItem9,rejilla,dominio,jinete,cilindro,pizarra,bigote,teniente,ribera,sepulcro,sonido,recodo,jarabe,fineza,giralda,tesina,velero,tiniebla,vinilo,navaja,pitillo,ciruelo,torija,gotera,becerro,rejilla,dominio,jinete,cilindro,pizarra,bigote,teniente,ribera,sepulcro,sonido,recodo,jarabe,fineza,giralda,tesina,velero,tiniebla,vinilo,navaja,pitillo,ciruelo,torija,gotera,becerro,ribera,ciruelo,sonido,tesina,torija,velero,becerro,recodo,cilindro,tiniebla,pizarra,navaja,jarabe,sepulcro,jinete,teniente,dominio,giralda,gotera,fineza,bigote,rejilla,pitillo,vinilo,ribera,ciruelo,sonido,tesina,torija,velero,becerro,recodo,cilindro,tiniebla,pizarra,navaja,jarabe,sepulcro,jinete,teniente,dominio,giralda,gotera,fineza,bigote,rejilla,pitillo,vinilo,jarana,jaqueca,,,,,,,,,4,0,4,0,0,7,7,9,,,,,,,None,,,,part001,A,2019_Feb_27_1427,Syllabification,3.0.5,60.2282676631124,
fillerItem1,ternera,langosta,sandía,pulsera,testigo,zancada,pintura,tardanza,juntura,rendija,tartana,narciso,punzada,gorguera,submundo,pescante,lumbrera,bengala,victoria,pantalla,certeza,portillo,congreso,ventana,ternera,langosta,sandía,pulsera,testigo,zancada,pintura,tardanza,juntura,rendija,tartana,narciso,punzada,gorguera,submundo,pescante,lumbrera,bengala,victoria,pantalla,certeza,portillo,congreso,ventana,tardanza,certeza,rendija,submundo,portillo,pescante,ventana,tartana,pulsera,lumbrera,testigo,victoria,narciso,juntura,sandía,pintura,langosta,gorguera,congreso,punzada,zancada,ternera,pantalla,bengala,tardanza,certeza,rendija,submundo,portillo,pescante,ventana,tartana,pulsera,lumbrera,testigo,victoria,narciso,juntura,sandía,pintura,langosta,gorguera,congreso,punzada,zancada,ternera,pantalla,bengala,cornisa,zarzuela,,,,,,,,,4,0,4,0,0,8,8,1,,,,,,,None,,,,part001,A,2019_Feb_27_1427,Syllabification,3.0.5,60.2282676631124,
fillerItem8,poniente,duquesa,juguete,vejiga,tibieza,pupitre,tesoro,butaca,recado,sotana,reguero,tetilla,rimero,cigarra,rapiña,ribazo,sopapo,cigoto,naranjo,veleta,gomina,sureste,pomada,lucero,poniente,duquesa,juguete,vejiga,tibieza,pupitre,tesoro,butaca,recado,sotana,reguero,tetilla,rimero,cigarra,rapiña,ribazo,sopapo,cigoto,naranjo,veleta,gomina,sureste,pomada,lucero,butaca,gomina,sotana,rapiña,sureste,ribazo,lucero,reguero,vejiga,sopapo,tibieza,naranjo,tetilla,recado,juguete,tesoro,duquesa,cigarra,pomada,rimero,pupitre,poniente,veleta,cigoto,butaca,gomina,sotana,rapiña,sureste,ribazo,lucero,reguero,vejiga,sopapo,tibieza,naranjo,tetilla,recado,juguete,tesoro,duquesa,cigarra,pomada,rimero,pupitre,poniente,veleta,cigoto,pimienta,cirilo,,,,,,,,,4,0,4,0,0,9,9,8,,,,,,,None,,,,part001,A,2019_Feb_27_1427,Syllabification,3.0.5,60.2282676631124,
fillerItem10,soneto,dureza,ginebra,zapato,vivencia,tumulto,tobillo,vivienda,reducto,renombre,vereda,farola,luneta,regato,rivera,velorio,solera,vigencia,barbecho,vivero,fogata,sobaco,tinaja,bufete,soneto,dureza,ginebra,zapato,vivencia,tumulto,tobillo,vivienda,reducto,renombre,vereda,farola,luneta,regato,rivera,velorio,solera,vigencia,barbecho,vivero,fogata,sobaco,tinaja,bufete,vivienda,fogata,renombre,rivera,sobaco,velorio,bufete,vereda,zapato,solera,vivencia,barbecho,farola,reducto,ginebra,tobillo,dureza,regato,tinaja,luneta,tumulto,soneto,vivero,vigencia,vivienda,fogata,renombre,rivera,sobaco,velorio,bufete,vereda,zapato,solera,vivencia,barbecho,farola,reducto,ginebra,tobillo,dureza,regato,tinaja,luneta,tumulto,soneto,vivero,vigencia,pimiento,piragua,,,,,,,,,4,0,4,0,0,10,10,10,,,,,,,None,,,,part001,A,2019_Feb_27_1427,Syllabification,3.0.5,60.2282676631124,
carrierItem,ganchillo,pestaña,pereza,morera,murmullo,joroba,culebra,centavo,volante,balada,linterna,bolero,castillo,paloma,montaña,campana,garaje,corona,costilla,rosquilla,pastilla,limpieza,cereza,coraje,ganchillo,pestaña,pereza,morera,murmullo,joroba,culebra,centavo,volante,balada,linterna,bolero,castillo,paloma,montaña,campana,garaje,corona,costilla,rosquilla,pastilla,limpieza,cereza,coraje,ceniza,pasaje,baldosa,moneda,limosna,camisa,corbata,linaje,morcillo,garganta,muralla,cosecha,bolsillo,voltaje,permiso,culpable,peseta,palmera,cerveza,casilla,jornada,ganancia,rosario,corteza,ceniza,pasaje,baldosa,moneda,limosna,camisa,corbata,linaje,morcillo,garganta,muralla,cosecha,bolsillo,voltaje,permiso,culpable,peseta,palmera,cerveza,casilla,jornada,ganancia,rosario,corteza,deltoides,delirio,,,,,,,,,4,0,4,0,0,11,11,0,,,,,,,y,0.701786298002844,,,part001,A,2019_Feb_27_1427,Syllabification,3.0.5,60.2282676631124,
targetSyl,ga,pes,per,mor,mu,jo,cu,cen,vol,ba,li,bo,ca,pal,mon,ca,gar,cor,co,ros,pas,lim,ce,co,gan,pe,pe,mo,mur,jor,cul,ce,vo,bal,lin,bol,cas,pa,mo,cam,ga,co,cos,ro,pa,li,cer,cor,cen,pas,ba,mon,lim,ca,co,li,mor,gar,mu,co,bo,vol,per,cu,pes,pal,ce,ca,jo,ga,ros,cor,ce,pa,bal,mo,li,cam,cor,lin,mo,ga,mur,cos,bol,vo,pe,cul,pe,pa,cer,cas,jor,gan,ro,co,del,de,,,,,,,,,4,0,4,0,,,,,,,,,,,,,,,part001,A,2019_Feb_27_1427,Syllabification,3.0.5,60.2282676631124,
fillerItem7,riqueza,jacinto,suceso,taquilla,dolencia,vigilia,fijeza,lavabo,tarima,picota,recurso,recato,tobera,regata,resabio,rebeca,cimiento,bufido,redada,legajo,rudeza,barcaza,fajardo,salero,riqueza,jacinto,suceso,taquilla,dolencia,vigilia,fijeza,lavabo,tarima,picota,recurso,recato,tobera,regata,resabio,rebeca,cimiento,bufido,redada,legajo,rudeza,barcaza,fajardo,salero,lavabo,rudeza,picota,resabio,barcaza,rebeca,salero,recurso,taquilla,cimiento,dolencia,redada,recato,tarima,suceso,fijeza,jacinto,regata,fajardo,tobera,vigilia,riqueza,legajo,bufido,lavabo,rudeza,picota,resabio,barcaza,rebeca,salero,recurso,taquilla,cimiento,dolencia,redada,recato,tarima,suceso,fijeza,jacinto,regata,fajardo,tobera,vigilia,riqueza,legajo,bufido,ranura,piropo,,,,,,,,,5,0,5,0,0,0,0,7,,,,,,,None,,,,part001,A,2019_Feb_27_1427,Syllabification,3.0.5,60.2282676631124,
fillerItem4,portento,doncella,solvencia,piltrafa,lactancia,cintura,tortazo,durmiente,gentuza,torpeza,zarpazo,fundillo,lenteja,costumbre,salchicha,cernuda,pinchazo,vendimia,persiana,campiña,mordaza,garbanzo,confianza,percance,portento,doncella,solvencia,piltrafa,lactancia,cintura,tortazo,durmiente,gentuza,torpeza,zarpazo,fundillo,lenteja,costumbre,salchicha,cernuda,pinchazo,vendimia,persiana,campiña,mordaza,garbanzo,confianza,percance,durmiente,mordaza,torpeza,salchicha,garbanzo,cernuda,percance,zarpazo,piltrafa,pinchazo,lactancia,persiana,fundillo,gentuza,solvencia,tortazo,doncella,costumbre,confianza,lenteja,cintura,portento,campiña,vendimia,durmiente,mordaza,torpeza,salchicha,garbanzo,cernuda,percance,zarpazo,piltrafa,pinchazo,lactancia,persiana,fundillo,gentuza,solvencia,tortazo,doncella,costumbre,confianza,lenteja,cintura,portento,campiña,vendimia,sarcasmo,pancarta,,,,,,,,,5,0,5,0,0,1,1,4,,,,,,,None,,,,part001,A,2019_Feb_27_1427,Syllabification,3.0.5,60.2282676631124,
fillerItem5,sendero,fantoche,jactancia,pulgada,vestigio,tintero,vertiente,burbuja,serpiente,sortija,polvera,farsante,vendaje,fortuna,lectura,felpudo,mensaje,cencerro,barbilla,putada,mordisco,corneta,bolzano,bandera,sendero,fantoche,jactancia,pulgada,vestigio,tintero,vertiente,burbuja,serpiente,sortija,polvera,farsante,vendaje,fortuna,lectura,felpudo,mensaje,cencerro,barbilla,putada,mordisco,corneta,bolzano,bandera,burbuja,mordisco,sortija,lectura,corneta,felpudo,bandera,polvera,pulgada,mensaje,vestigio,barbilla,farsante,serpiente,jactancia,vertiente,fantoche,fortuna,bolzano,vendaje,tintero,sendero,putada,cencerro,burbuja,mordisco,sortija,lectura,corneta,felpudo,bandera,polvera,pulgada,mensaje,vestigio,barbilla,farsante,serpiente,jactancia,vertiente,fantoche,fortuna,bolzano,vendaje,tintero,sendero,putada,cencerro,pandilla,suspenso,,,,,,,,,5,0,5,0,0,2,2,5,,,,,,,None,,,,part001,A,2019_Feb_27_1427,Syllabification,3.0.5,60.2282676631124,
fillerItem2,zumbido,jilguero,soltura,venganza,vestuario,tinglado,sarmiento,tornillo,largueza,tortuga,portazo,gustillo,mortaja,gorjeo,laxante,pestillo,polvillo,lanzazo,perchero,lenguaje,cordero,sonrisa,campaña,balbina,zumbido,jilguero,soltura,venganza,vestuario,tinglado,sarmiento,tornillo,largueza,tortuga,portazo,gustillo,mortaja,gorjeo,laxante,pestillo,polvillo,lanzazo,perchero,lenguaje,cordero,sonrisa,campaña,balbina,tornillo,cordero,tortuga,laxante,sonrisa,pestillo,balbina,portazo,venganza,polvillo,vestuario,perchero,gustillo,largueza,soltura,sarmiento,jilguero,gorjeo,campaña,mortaja,tinglado,zumbido,lenguaje,lanzazo,tornillo,cordero,tortuga,laxante,sonrisa,pestillo,balbina,portazo,venganza,polvillo,vestuario,perchero,gustillo,largueza,soltura,sarmiento,jilguero,gorjeo,campaña,mortaja,tinglado,zumbido,lenguaje,lanzazo,fondillo,captura,,,,,,,,,5,0,5,0,0,3,3,2,,,,,,,None,,,,part001,A,2019_Feb_27_1427,Syllabification,3.0.5,60.2282676631124,
fillerItem1,ternera,langosta,sandía,pulsera,testigo,zancada,pintura,tardanza,juntura,rendija,tartana,narciso,punzada,gorguera,submundo,pescante,lumbrera,bengala,victoria,pantalla,certeza,portillo,congreso,ventana,ternera,langosta,sandía,pulsera,testigo,zancada,pintura,tardanza,juntura,rendija,tartana,narciso,punzada,gorguera,submundo,pescante,lumbrera,bengala,victoria,pantalla,certeza,portillo,congreso,ventana,tardanza,certeza,rendija,submundo,portillo,pescante,ventana,tartana,pulsera,lumbrera,testigo,victoria,narciso,juntura,sandía,pintura,langosta,gorguera,congreso,punzada,zancada,ternera,pantalla,bengala,tardanza,certeza,rendija,submundo,portillo,pescante,ventana,tartana,pulsera,lumbrera,testigo,victoria,narciso,juntura,sandía,pintura,langosta,gorguera,congreso,punzada,zancada,ternera,pantalla,bengala,cornisa,zarzuela,,,,,,,,,5,0,5,0,0,4,4,1,,,,,,,None,,,,part001,A,2019_Feb_27_1427,Syllabification,3.0.5,60.2282676631124,
fillerItem3,postigo,gordura,silbido,fastidio,poltrona,ventaja,verdura,ruptura,ternura,sordera,vergüenza,tumbona,puntilla,conducta,vislumbre,filete,lenguado,ventisca,perfidia,cambiazo,cordura,respuesta,concepto,palmada,postigo,gordura,silbido,fastidio,poltrona,ventaja,verdura,ruptura,ternura,sordera,vergüenza,tumbona,puntilla,conducta,vislumbre,filete,lenguado,ventisca,perfidia,cambiazo,cordura,respuesta,concepto,palmada,ruptura,cordura,sordera,vislumbre,respuesta,filete,palmada,vergüenza,fastidio,lenguado,poltrona,perfidia,tumbona,ternura,silbido,verdura,gordura,conducta,concepto,puntilla,ventaja,postigo,cambiazo,ventisca,ruptura,cordura,sordera,vislumbre,respuesta,filete,palmada,vergüenza,fastidio,lenguado,poltrona,perfidia,tumbona,ternura,silbido,verdura,gordura,conducta,concepto,puntilla,ventaja,postigo,cambiazo,ventisca,zarcillo,jasmina,,,,,,,,,5,0,5,0,0,5,5,3,,,,,,,None,,,,part001,A,2019_Feb_27_1427,Syllabification,3.0.5,60.2282676631124,
fillerItem9,rejilla,dominio,jinete,cilindro,pizarra,bigote,teniente,ribera,sepulcro,sonido,recodo,jarabe,fineza,giralda,tesina,velero,tiniebla,vinilo,navaja,pitillo,ciruelo,torija,gotera,becerro,rejilla,dominio,jinete,cilindro,pizarra,bigote,teniente,ribera,sepulcro,sonido,recodo,jarabe,fineza,giralda,tesina,velero,tiniebla,vinilo,navaja,pitillo,ciruelo,torija,gotera,becerro,ribera,ciruelo,sonido,tesina,torija,velero,becerro,recodo,cilindro,tiniebla,pizarra,navaja,jarabe,sepulcro,jinete,teniente,dominio,giralda,gotera,fineza,bigote,rejilla,pitillo,vinilo,ribera,ciruelo,sonido,tesina,torija,velero,becerro,recodo,cilindro,tiniebla,pizarra,navaja,jarabe,sepulcro,jinete,teniente,dominio,giralda,gotera,fineza,bigote,rejilla,pitillo,vinilo,jarana,jaqueca,,,,,,,,,5,0,5,0,0,6,6,9,,,,,,,None,,,,part001,A,2019_Feb_27_1427,Syllabification,3.0.5,60.2282676631124,
fillerItem10,soneto,dureza,ginebra,zapato,vivencia,tumulto,tobillo,vivienda,reducto,renombre,vereda,farola,luneta,regato,rivera,velorio,solera,vigencia,barbecho,vivero,fogata,sobaco,tinaja,bufete,soneto,dureza,ginebra,zapato,vivencia,tumulto,tobillo,vivienda,reducto,renombre,vereda,farola,luneta,regato,rivera,velorio,solera,vigencia,barbecho,vivero,fogata,sobaco,tinaja,bufete,vivienda,fogata,renombre,rivera,sobaco,velorio,bufete,vereda,zapato,solera,vivencia,barbecho,farola,reducto,ginebra,tobillo,dureza,regato,tinaja,luneta,tumulto,soneto,vivero,vigencia,vivienda,fogata,renombre,rivera,sobaco,velorio,bufete,vereda,zapato,solera,vivencia,barbecho,farola,reducto,ginebra,tobillo,dureza,regato,tinaja,luneta,tumulto,soneto,vivero,vigencia,pimiento,piragua,,,,,,,,,5,0,5,0,0,7,7,10,,,,,,,None,,,,part001,A,2019_Feb_27_1427,Syllabification,3.0.5,60.2282676631124,
fillerItem11,tejado,cigarro,gusano,secuela,silicio,bufanda,pureza,talante,recinto,semilla,tocino,remiendo,remesa,regate,tisana,gozada,pujanza,visera,nevera,tijera,donaire,soborno,pineda,visillo,tejado,cigarro,gusano,secuela,silicio,bufanda,pureza,talante,recinto,semilla,tocino,remiendo,remesa,regate,tisana,gozada,pujanza,visera,nevera,tijera,donaire,soborno,pineda,visillo,talante,donaire,semilla,tisana,soborno,gozada,visillo,tocino,secuela,pujanza,silicio,nevera,remiendo,recinto,gusano,pureza,cigarro,regate,pineda,remesa,bufanda,tejado,tijera,visera,talante,donaire,semilla,tisana,soborno,gozada,visillo,tocino,secuela,pujanza,silicio,nevera,remiendo,recinto,gusano,pureza,cigarro,regate,pineda,remesa,bufanda,tejado,tijera,visera,secano,pocilga,,,,,,,,,5,0,5,0,0,8,8,11,,,,,,,None,,,,part001,A,2019_Feb_27_1427,Syllabification,3.0.5,60.2282676631124,
fillerItem8,poniente,duquesa,juguete,vejiga,tibieza,pupitre,tesoro,butaca,recado,sotana,reguero,tetilla,rimero,cigarra,rapiña,ribazo,sopapo,cigoto,naranjo,veleta,gomina,sureste,pomada,lucero,poniente,duquesa,juguete,vejiga,tibieza,pupitre,tesoro,butaca,recado,sotana,reguero,tetilla,rimero,cigarra,rapiña,ribazo,sopapo,cigoto,naranjo,veleta,gomina,sureste,pomada,lucero,butaca,gomina,sotana,rapiña,sureste,ribazo,lucero,reguero,vejiga,sopapo,tibieza,naranjo,tetilla,recado,juguete,tesoro,duquesa,cigarra,pomada,rimero,pupitre,poniente,veleta,cigoto,butaca,gomina,sotana,rapiña,sureste,ribazo,lucero,reguero,vejiga,sopapo,tibieza,naranjo,tetilla,recado,juguete,tesoro,duquesa,cigarra,pomada,rimero,pupitre,poniente,veleta,cigoto,pimienta,cirilo,,,,,,,,,5,0,5,0,0,9,9,8,,,,,,,None,,,,part001,A,2019_Feb_27_1427,Syllabification,3.0.5,60.2282676631124,
fillerItem6,reliquia,laguna,subsuelo,vistazo,tapete,piscina,tarjeta,viruela,rasguño,tersura,regazo,rastrillo,remanso,cornada,tufillo,cizalla,tendencia,pesquisa,viraje,pileta,relente,pozuelo,pescuezo,bastilla,reliquia,laguna,subsuelo,vistazo,tapete,piscina,tarjeta,viruela,rasguño,tersura,regazo,rastrillo,remanso,cornada,tufillo,cizalla,tendencia,pesquisa,viraje,pileta,relente,pozuelo,pescuezo,bastilla,viruela,relente,tersura,tufillo,pozuelo,cizalla,bastilla,regazo,vistazo,tendencia,tapete,viraje,rastrillo,rasguño,subsuelo,tarjeta,laguna,cornada,pescuezo,remanso,piscina,reliquia,pileta,pesquisa,viruela,relente,tersura,tufillo,pozuelo,cizalla,bastilla,regazo,vistazo,tendencia,tapete,viraje,rastrillo,rasguño,subsuelo,tarjeta,laguna,cornada,pescuezo,remanso,piscina,reliquia,pileta,pesquisa,ponencia,sandalia,,,,,,,,,5,0,5,0,0,10,10,6,,,,,,,None,,,,part001,A,2019_Feb_27_1427,Syllabification,3.0.5,60.2282676631124,
carrierItem,ganchillo,pestaña,pereza,morera,murmullo,joroba,culebra,centavo,volante,balada,linterna,bolero,castillo,paloma,montaña,campana,garaje,corona,costilla,rosquilla,pastilla,limpieza,cereza,coraje,ganchillo,pestaña,pereza,morera,murmullo,joroba,culebra,centavo,volante,balada,linterna,bolero,castillo,paloma,montaña,campana,garaje,corona,costilla,rosquilla,pastilla,limpieza,cereza,coraje,ceniza,pasaje,baldosa,moneda,limosna,camisa,corbata,linaje,morcillo,garganta,muralla,cosecha,bolsillo,voltaje,permiso,culpable,peseta,palmera,cerveza,casilla,jornada,ganancia,rosario,corteza,ceniza,pasaje,baldosa,moneda,limosna,camisa,corbata,linaje,morcillo,garganta,muralla,cosecha,bolsillo,voltaje,permiso,culpable,peseta,palmera,cerveza,casilla,jornada,ganancia,rosario,corteza,deltoides,delirio,,,,,,,,,5,0,5,0,0,11,11,0,,,,,,,y,0.8008449689987174,,,part001,A,2019_Feb_27_1427,Syllabification,3.0.5,60.2282676631124,
targetSyl,ga,pes,per,mor,mu,jo,cu,cen,vol,ba,li,bo,ca,pal,mon,ca,gar,cor,co,ros,pas,lim,ce,co,gan,pe,pe,mo,mur,jor,cul,ce,vo,bal,lin,bol,cas,pa,mo,cam,ga,co,cos,ro,pa,li,cer,cor,cen,pas,ba,mon,lim,ca,co,li,mor,gar,mu,co,bo,vol,per,cu,pes,pal,ce,ca,jo,ga,ros,cor,ce,pa,bal,mo,li,cam,cor,lin,mo,ga,mur,cos,bol,vo,pe,cul,pe,pa,cer,cas,jor,gan,ro,co,del,de,,,,,,,,,5,0,5,0,,,,,,,,,,,,,,,part001,A,2019_Feb_27_1427,Syllabification,3.0.5,60.2282676631124,
fillerItem7,riqueza,jacinto,suceso,taquilla,dolencia,vigilia,fijeza,lavabo,tarima,picota,recurso,recato,tobera,regata,resabio,rebeca,cimiento,bufido,redada,legajo,rudeza,barcaza,fajardo,salero,riqueza,jacinto,suceso,taquilla,dolencia,vigilia,fijeza,lavabo,tarima,picota,recurso,recato,tobera,regata,resabio,rebeca,cimiento,bufido,redada,legajo,rudeza,barcaza,fajardo,salero,lavabo,rudeza,picota,resabio,barcaza,rebeca,salero,recurso,taquilla,cimiento,dolencia,redada,recato,tarima,suceso,fijeza,jacinto,regata,fajardo,tobera,vigilia,riqueza,legajo,bufido,lavabo,rudeza,picota,resabio,barcaza,rebeca,salero,recurso,taquilla,cimiento,dolencia,redada,recato,tarima,suceso,fijeza,jacinto,regata,fajardo,tobera,vigilia,riqueza,legajo,bufido,ranura,piropo,,,,,,,,,6,0,6,0,0,0,0,7,,,,,,,None,,,,part001,A,2019_Feb_27_1427,Syllabification,3.0.5,60.2282676631124,
fillerItem2,zumbido,jilguero,soltura,venganza,vestuario,tinglado,sarmiento,tornillo,largueza,tortuga,portazo,gustillo,mortaja,gorjeo,laxante,pestillo,polvillo,lanzazo,perchero,lenguaje,cordero,sonrisa,campaña,balbina,zumbido,jilguero,soltura,venganza,vestuario,tinglado,sarmiento,tornillo,largueza,tortuga,portazo,gustillo,mortaja,gorjeo,laxante,pestillo,polvillo,lanzazo,perchero,lenguaje,cordero,sonrisa,campaña,balbina,tornillo,cordero,tortuga,laxante,sonrisa,pestillo,balbina,portazo,venganza,polvillo,vestuario,perchero,gustillo,largueza,soltura,sarmiento,jilguero,gorjeo,campaña,mortaja,tinglado,zumbido,lenguaje,lanzazo,tornillo,cordero,tortuga,laxante,sonrisa,pestillo,balbina,portazo,venganza,polvillo,vestuario,perchero,gustillo,largueza,soltura,sarmiento,jilguero,gorjeo,campaña,mortaja,tinglado,zumbido,lenguaje,lanzazo,fondillo,captura,,,,,,,,,6,0,6,0,0,1,1,2,,,,,,,None,,,,part001,A,2019_Feb_27_1427,Syllabification,3.0.5,60.2282676631124,
fillerItem1,ternera,langosta,sandía,pulsera,testigo,zancada,pintura,tardanza,juntura,rendija,tartana,narciso,punzada,gorguera,submundo,pescante,lumbrera,bengala,victoria,pantalla,certeza,portillo,congreso,ventana,ternera,langosta,sandía,pulsera,testigo,zancada,pintura,tardanza,juntura,rendija,tartana,narciso,punzada,gorguera,submundo,pescante,lumbrera,bengala,victoria,pantalla,certeza,portillo,congreso,ventana,tardanza,certeza,rendija,submundo,portillo,pescante,ventana,tartana,pulsera,lumbrera,testigo,victoria,narciso,juntura,sandía,pintura,langosta,gorguera,congreso,punzada,zancada,ternera,pantalla,bengala,tardanza,certeza,rendija,submundo,portillo,pescante,ventana,tartana,pulsera,lumbrera,testigo,victoria,narciso,juntura,sandía,pintura,langosta,gorguera,congreso,punzada,zancada,ternera,pantalla,bengala,cornisa,zarzuela,,,,,,,,,6,0,6,0,0,2,2,1,,,,,,,None,,,,part001,A,2019_Feb_27_1427,Syllabification,3.0.5,60.2282676631124,
fillerItem10,soneto,dureza,ginebra,zapato,vivencia,tumulto,tobillo,vivienda,reducto,renombre,vereda,farola,luneta,regato,rivera,velorio,solera,vigencia,barbecho,vivero,fogata,sobaco,tinaja,bufete,soneto,dureza,ginebra,zapato,vivencia,tumulto,tobillo,vivienda,reducto,renombre,vereda,farola,luneta,regato,rivera,velorio,solera,vigencia,barbecho,vivero,fogata,sobaco,tinaja,bufete,vivienda,fogata,renombre,rivera,sobaco,velorio,bufete,vereda,zapato,solera,vivencia,barbecho,farola,reducto,ginebra,tobillo,dureza,regato,tinaja,luneta,tumulto,soneto,vivero,vigencia,vivienda,fogata,renombre,rivera,sobaco,velorio,bufete,vereda,zapato,solera,vivencia,barbecho,farola,reducto,ginebra,tobillo,dureza,regato,tinaja,luneta,tumulto,soneto,vivero,vigencia,pimiento,piragua,,,,,,,,,6,0,6,0,0,3,3,10,,,,,,,None,,,,part001,A,2019_Feb_27_1427,Syllabification,3.0.5,60.2282676631124,
fillerItem9,rejilla,dominio,jinete,cilindro,pizarra,bigote,teniente,ribera,sepulcro,sonido,recodo,jarabe,fineza,giralda,tesina,velero,tiniebla,vinilo,navaja,pitillo,ciruelo,torija,gotera,becerro,rejilla,dominio,jinete,cilindro,pizarra,bigote,teniente,ribera,sepulcro,sonido,recodo,jarabe,fineza,giralda,tesina,velero,tiniebla,vinilo,navaja,pitillo,ciruelo,torija,gotera,becerro,ribera,ciruelo,sonido,tesina,torija,velero,becerro,recodo,cilindro,tiniebla,pizarra,navaja,jarabe,sepulcro,jinete,teniente,dominio,giralda,gotera,fineza,bigote,rejilla,pitillo,vinilo,ribera,ciruelo,sonido,tesina,torija,velero,becerro,recodo,cilindro,tiniebla,pizarra,navaja,jarabe,sepulcro,jinete,teniente,dominio,giralda,gotera,fineza,bigote,rejilla,pitillo,vinilo,jarana,jaqueca,,,,,,,,,6,0,6,0,0,4,4,9,,,,,,,None,,,,part001,A,2019_Feb_27_1427,Syllabification,3.0.5,60.2282676631124,
fillerItem5,sendero,fantoche,jactancia,pulgada,vestigio,tintero,vertiente,burbuja,serpiente,sortija,polvera,farsante,vendaje,fortuna,lectura,felpudo,mensaje,cencerro,barbilla,putada,mordisco,corneta,bolzano,bandera,sendero,fantoche,jactancia,pulgada,vestigio,tintero,vertiente,burbuja,serpiente,sortija,polvera,farsante,vendaje,fortuna,lectura,felpudo,mensaje,cencerro,barbilla,putada,mordisco,corneta,bolzano,bandera,burbuja,mordisco,sortija,lectura,corneta,felpudo,bandera,polvera,pulgada,mensaje,vestigio,barbilla,farsante,serpiente,jactancia,vertiente,fantoche,fortuna,bolzano,vendaje,tintero,sendero,putada,cencerro,burbuja,mordisco,sortija,lectura,corneta,felpudo,bandera,polvera,pulgada,mensaje,vestigio,barbilla,farsante,serpiente,jactancia,vertiente,fantoche,fortuna,bolzano,vendaje,tintero,sendero,putada,cencerro,pandilla,suspenso,,,,,,,,,6,0,6,0,0,5,5,5,,,,,,,None,,,,part001,A,2019_Feb_27_1427,Syllabification,3.0.5,60.2282676631124,
carrierItem,ganchillo,pestaña,pereza,morera,murmullo,joroba,culebra,centavo,volante,balada,linterna,bolero,castillo,paloma,montaña,campana,garaje,corona,costilla,rosquilla,pastilla,limpieza,cereza,coraje,ganchillo,pestaña,pereza,morera,murmullo,joroba,culebra,centavo,volante,balada,linterna,bolero,castillo,paloma,montaña,campana,garaje,corona,costilla,rosquilla,pastilla,limpieza,cereza,coraje,ceniza,pasaje,baldosa,moneda,limosna,camisa,corbata,linaje,morcillo,garganta,muralla,cosecha,bolsillo,voltaje,permiso,culpable,peseta,palmera,cerveza,casilla,jornada,ganancia,rosario,corteza,ceniza,pasaje,baldosa,moneda,limosna,camisa,corbata,linaje,morcillo,garganta,muralla,cosecha,bolsillo,voltaje,permiso,culpable,peseta,palmera,cerveza,casilla,jornada,ganancia,rosario,corteza,deltoides,delirio,,,,,,,,,6,0,6,0,0,6,6,0,,,,,,,y,0.7010055549981189,,,part001,A,2019_Feb_27_1427,Syllabification,3.0.5,60.2282676631124,
